idx,sec,nanosec,t,qx,qy,qz,qw,wx,wy,wz,ax,ay,az
0,1786799100,701528033,1786799100.701528,-0.0011028367983798126,6.77690809493571e-05,-0.7153743379760892,-0.6987405353374171,-0.002696133522474155,-0.0016518353352231489,0.0009373765130550665,-0.015039328480830328,0.015849024989879446,9.827346819229467
1,1786799100,711341739,1786799100.711342,0.0009585322145704269,0.0005785903693206065,-0.7182662100840448,-0.6957674883901096,-0.0007210630774769133,0.0017043211180133365,-0.0010533832072816304,0.01211644041810769,-0.01884017178033728,9.804122855168732
2,1786799100,849110060,1786799100.849110,-0.0002070116345150915,0.0011740562201713206,-0.7067825119232809,-0.7074298972884823,-0.0017954408081747625,0.000779808359298342,-0.0004829667445983539,0.007080442894259023,0.020342855469405827,9.812868125436609
3,1786799101,320923068,1786799101.320923,0.0010615528149770267,0.00032060712001587483,-0.7085232195837817,-0.7056866284884021,0.00045155142680047296,0.0017912763675988015,-0.0010756224360808986,-0.006809185785638475,-0.026864324904166802,9.815990059316647
4,1786799101,330664266,1786799101.330664,0.0004072680737844768,-0.00041359500768012455,-0.7081770157248679,-0.7060346857420718,-0.001257171268684259,0.0028580878950989035,-0.003296871038308747,-0.01930936223534194,-0.007490194108304139,9.808887958502357
5,1786799101,341825614,1786799101.341826,-0.00018431898035627096,0.00014316870411479286,-0.708389765468684,-0.7058214262180335,0.0010915270182106345,-0.0008459578127044053,0.0009343299527001941,-0.023387130815954282,0.014317493903162296,9.787830131423103
6,1786799101,351239583,1786799101.351240,0.0006401641177007026,-0.00045973360425760374,-0.7082496193150754,-0.7059616530484971,-0.0019400318576140783,0.0030404757331344346,0.005194448302630762,0.028820417823148373,0.0008846841999663219,9.819057991717441
7,1786799101,362393045,1786799101.362393,-0.0008566768961733916,0.0006763336004750439,-0.7043677152603235,-0.7098344387084276,0.0014387262181882769,0.0008346409160662669,0.0006294314465018955,-0.011020816081891581,0.03365992459316974,9.797494922076751
8,1786799101,371579844,1786799101.371580,-0.00035896835107915195,0.0002687247869129706,-0.6942513794054348,-0.7197324649634493,0.0026410012640419654,0.000607568034703618,-0.0002498326007408822,0.01010933950981247,0.0067543361212756845,9.814886933020897
9,1786799101,382781706,1786799101.382782,-0.0011802697379156293,0.0011090134901607055,-0.7150469160406686,-0.6990745918091671,0.0012064336114993666,0.0006912961707919061,0.00028850283410039476,0.025743611527463416,0.005630010806878488,9.84079877713912
10,1786799101,388623887,1786799101.388624,-0.0008659679473838695,0.00022105765070997173,-0.7099348610482554,-0.7042667777919269,0.0037768473485467685,0.0023347437305390384,-0.0006170737826888086,-0.00010250290369812827,0.022675061545836293,9.803071619741049
11,1786799101,399706377,1786799101.399706,0.0002499996752158044,-0.00034085168436863466,-0.6984717127789516,-0.7156375393786506,-0.0027563591059737665,-0.000581449294583141,0.000716603476154919,0.001641677319049804,-0.00460562451729103,9.810638169021361
12,1786799101,408931931,1786799101.408932,-0.000967555138297697,0.0004667370715486941,-0.7143898252701127,-0.6997471139948334,-0.00012948377381023202,0.0016703099421435145,0.0005135126068412928,0.030615417544727394,0.017416571187341686,9.800599966010735
13,1786799101,419754411,1786799101.419755,-0.00039181135038436133,-0.00039961499845234745,-0.7089427433328778,-0.7052658175945948,-0.0017240168171444032,0.0005055858726684026,-0.0005002084197680618,-0.02836035008391173,0.014345502190038316,9.820603170691093
14,1786799101,429470430,1786799101.429471,-0.0003135940516191675,0.0009143112408430952,-0.7153780209233646,-0.6987369697343172,0.00242785782802436,0.0015239119887322354,0.0017086316849913143,0.020119671939912234,-0.00620986211168609,9.818014242762045
15,1786799101,440132344,1786799101.440132,-0.0015152400943187704,0.001357142538639288,-0.7051669968855063,-0.7090383407934038,-0.0006271529088596953,-0.0006947403238192001,-0.00038078352749071256,-0.026660985002467465,0.0038843737209215577,9.818451846831996
16,1786799101,449744498,1786799101.449744,0.0009234467406845572,0.0003573485956707852,-0.6999555027966491,-0.714185769707566,-0.0005095497114933543,0.0018017030454889195,0.0002679413996287905,0.005869750238316913,0.004019048574546668,9.804845860423754
17,1786799101,460545245,1786799101.460545,-0.000640709933205842,0.001392300075182687,-0.7115999048970738,-0.7025832522496944,-0.0013386786733429884,1.2618663503298518e-05,0.0008586068139916596,0.00525785825982456,-0.003750623441269147,9.801429291719199
18,1786799101,470315545,1786799101.470315,-0.000646940374638732,0.0020329851682632538,-0.7041783615042229,-0.7100199177689915,-0.003232103652393497,-0.00014607667947413158,0.0007048238567389708,-0.01946492399225093,0.03175170564236991,9.792110979402706
19,1786799101,481087450,1786799101.481087,0.002260492532193159,0.0010303166838313673,-0.6998131989521272,-0.7143215768779727,-0.0020871022452444007,-0.0015694702465718893,0.0005497650231697407,-0.003513423277991837,-0.001772976065670191,9.788920441215105
20,1786799101,490785764,1786799101.490786,8.6032852103171e-08,0.00043024332345032086,-0.7044110268467644,-0.709792166868135,0.001905592358390713,0.0020198473059772444,0.0026154856785837914,-0.003149008108190424,-0.009247892353283646,9.832703689238619
21,1786799101,539375310,1786799101.539375,-0.0007749223143358794,0.00046577993279692915,-0.6977572099339737,-0.7163337619640844,0.0007658559659338854,-3.773070372355218e-05,-0.001775920994305226,-0.0349790137211722,0.03447941689696951,9.83010270080334
22,1786799101,569721521,1786799101.569721,0.00034178602332728803,-0.0008977471158700542,-0.6988881289168212,-0.7152303548449095,0.00036842334432590426,0.0003690857134413568,-3.059890282986247e-05,0.013185589156116295,0.007331562512726282,9.75958779955456
23,1786799101,580965814,1786799101.580966,0.000696404775567255,0.0008634881435021216,-0.7056142482103087,-0.7085953020809661,-0.0021224060215226277,-0.00024261389901327195,-0.001604325655104709,-0.003920690995544073,0.013822383302542315,9.776483753006136
24,1786799101,590223409,1786799101.590223,0.0017102992881544033,0.0007972466539882957,-0.7115941700098989,-0.702588198365188,-0.002440900674139176,-0.0016504912262639085,-0.0015680381199872247,0.0031264509908377454,0.018088837375363938,9.743405549887393
25,1786799101,600947384,1786799101.600947,-0.001623345858044835,-0.0004973703614394062,-0.711617151496868,-0.7025654041200952,0.001367851467034785,0.00044590356422888203,-0.0016038318669258276,0.008314986201412715,0.0020978067838315394,9.818968714298991
26,1786799101,610601105,1786799101.610601,0.0012626731406512074,0.0026750943727593592,-0.7016223432496806,-0.7125428667662488,0.001104083995857451,-0.0010820395811857197,0.0009003789476654526,0.01664116853293805,0.014767580020627969,9.78828267512717
27,1786799101,621796612,1786799101.621797,-0.00038830988178973936,0.0004834979300529522,-0.7128192504933796,-0.7013475112747204,-0.0028097660167302864,0.0033922371091853107,0.003299483817027271,-0.016484848380577358,-0.038003249239614005,9.782794637241018
28,1786799101,631040508,1786799101.631041,0.0008063139569164969,-0.00038143700504626575,-0.7031977534175174,-0.7109937580261662,0.0016888543177346533,-4.100171834969702e-05,0.00021320959184188524,-0.006880995480213151,0.008975373059174006,9.871802853750491
29,1786799101,642203122,1786799101.642203,-0.00019749818613036259,0.0017186959797052855,-0.7144494927185009,-0.6996848786652979,0.000673101396565349,0.0021305523968649424,0.0008294652884686752,0.013797333107038127,-0.0008698668969351097,9.849130514714805
30,1786799101,651560084,1786799101.651560,-0.000897827799134675,-0.00019303150904451203,-0.7174751096506674,-0.6965835367533765,0.0007559763437331606,0.0009745688511555826,-0.0015751604325412647,0.017081937822050013,-0.026324060137050995,9.802298248187826
31,1786799101,662820438,1786799101.662820,-0.0006454893637452897,-0.001121415517893392,-0.7026578591143614,-0.7115267098258081,0.00045041718639037156,-0.0013396687476768924,8.519196261769267e-05,0.023112253252239645,0.004364607024046609,9.760260043437537
32,1786799101,668901196,1786799101.668901,-0.0007850243118504764,0.001395884925747004,-0.7025893367227537,-0.711593745873012,-0.001358262236135543,0.0008488320526870343,-0.0003689965763375406,0.009973384354653126,-0.038943606988741455,9.785893182017887
33,1786799101,679697393,1786799101.679697,-0.0007133325381018282,-0.0012253502972758095,-0.712089712990045,-0.702087053239906,-0.001478326618342795,-0.00022533295887212148,0.00013561881183709375,-0.02909087930041853,0.023594516678099045,9.811005393392719
34,1786799101,689533280,1786799101.689533,-0.0009481956553070157,-0.000866953710761779,-0.698327350922162,-0.7157773817817229,-0.0006785316165818887,0.000612871404106726,0.0007976087789766332,-0.06531866397727591,0.028924364254723244,9.844274905511577
35,1786799101,700754980,1786799101.700755,0.000577879892141189,-0.00048077042116272134,-0.7052740986625812,-0.7089343274735089,0.00030535642158548344,0.002111051278644107,0.00086466831878384,-0.0055822048672116795,-0.01768223044509123,9.801784094499169
36,1786799101,710179054,1786799101.710179,-0.0006380189522974038,8.501904528511158e-05,-0.6991643396671451,-0.7149607065016815,-0.0036103602379920427,-0.0008315636497139726,-0.0015817820438454775,-0.0037255017156196564,-0.0016072393944962955,9.795485876408874
37,1786799101,721204838,1786799101.721205,-0.0014507789748517132,-0.0021693189573496084,-0.704873146323132,-0.7093285817504861,-0.000876819353049305,-0.0017022800940327254,0.00019920585755686936,0.0040690999190471635,0.010041254022421621,9.82893418216532
38,1786799101,730545735,1786799101.730546,-0.0003276531062504976,0.0014782221195843662,-0.7103312011590621,-0.7038659617872789,0.0013868308780271268,0.0017512623943210122,0.0013326126650011465,0.0011236623767945317,-0.004437694657483226,9.796199294778594
39,1786799101,741759841,1786799101.741760,-0.0004377489146321725,-0.0006727763479957303,-0.7039595087028837,-0.7102396538174055,-0.0020871041775719365,0.002482280686614475,0.0037475367736793546,0.024351429976799004,-0.009625714364830475,9.796249924350214
40,1786799101,751283655,1786799101.751284,0.001387067756695455,0.00035808011231850924,-0.7019839359498613,-0.712191337696558,-0.0005165650945964687,-0.0004674628252188043,6.654558322220176e-05,-0.02961927817100686,-0.00268213522213143,9.850047296510239
41,1786799101,762535541,1786799101.762536,0.000920523239022672,0.0004966511890982615,-0.7193480095427723,-0.6946490820129357,-0.0060611477394040495,0.0025571640269906816,0.003192620068642619,-0.02606097091974041,0.011020140863070496,9.78045817244214
42,1786799101,771959316,1786799101.771959,0.0007335158409120531,-0.0009823058407787306,-0.7022790689422059,-0.7119006997857319,-0.00176524449930445,0.0003131242339324472,-0.0008179692779061407,-0.032162643013862166,0.001981098015062054,9.805005207504134
43,1786799101,779792432,1786799101.779793,-0.000494453905406819,0.000777249203364204,-0.7052682338707208,-0.7089399619797756,-0.001017358778192389,-0.0031900562091211606,0.0019895302873103606,-0.004645422704098954,0.03979565876373573,9.793256061942708
44,1786799101,789255547,1786799101.789256,0.0003309775951732983,0.00047692998761948355,-0.7017643588349607,-0.7124089048156088,-0.0019938323506129363,0.0013531044116521958,0.0007894685191344593,0.02309932542176732,0.02292619731956032,9.804425489587755
45,1786799101,800614940,1786799101.800615,-8.350626552302899e-05,0.00011720804473078805,-0.7199237989450851,-0.6940530981138653,0.00396988436222226,-0.0007673268819239483,0.0007884467910899747,-0.004097964693755133,-0.0063399998105318055,9.793065976976614
46,1786799101,810084624,1786799101.810085,-0.0005625971708791589,0.0015048948290950776,-0.7099989996844116,-0.7042008514785478,-0.0005536183529596409,0.0006793928679551143,-0.0004696451931315026,0.01564371676768326,-0.025754133908932938,9.792663776335813
47,1786799101,821456116,1786799101.821456,-0.0002563520480649831,-0.00016766268604111021,-0.7130389142272191,-0.7011243919380639,0.0010297198371547827,-0.0032375161543952155,0.0004497796756117621,0.009195162330320241,-0.002428337200627993,9.798479521953878
48,1786799101,830772586,1786799101.830773,0.0005742652396417769,-0.0008174232242251828,-0.7160194927402417,-0.698079571434886,-7.338874564334238e-05,0.0002878634946612516,-0.0011863084136874112,-0.028385662606250143,-0.01783705393041853,9.806215749290903
49,1786799101,842550702,1786799101.842551,0.0011600074007070572,-0.0012049544189398046,-0.7113135449002114,-0.7028728500299138,-0.0017786416774154396,-0.0006111002117087734,0.0015046839093709353,-0.01605349218683286,-0.023279528832608743,9.77719362138814
50,1786799101,851528204,1786799101.851528,-0.0005576445393668273,0.0006065308992954293,-0.6970733371673141,-0.7169993610619609,-0.0011157802882571623,0.0008755711737826127,-0.0008631749264147595,0.004083954948302154,0.010683963444045945,9.799743698528758
51,1786799101,862735683,1786799101.862736,0.0007025587628447001,0.0014144296194823608,-0.7035675001455785,-0.7106266801485418,-0.0028612044885520933,9.957919998496308e-05,-0.002915648343869462,-0.0211281235616777,-0.00991109774236162,9.804707490458876
52,1786799101,868898323,1786799101.868898,-0.0003424663113801516,-0.001191741067672732,-0.7084978012353204,-0.7057119299790601,0.0010668427888625052,6.798712172105908e-05,0.0014776283207447892,-0.021619940058984863,-0.007382848139807686,9.805649493289195
53,1786799101,889588446,1786799101.889588,-0.00033617451728044174,-0.0006633812306620666,-0.7057505458445235,-0.7084600298903208,0.0020660899027384566,0.0028179646696239037,-0.00285897880170341,-0.006503214852320201,0.005942720056979066,9.844144514399936
54,1786799101,900747467,1786799101.900748,-0.0020932850925690907,0.000563524207146641,-0.7160528170097294,-0.6980427378394679,0.00030632823263721074,-0.0007391859010913062,-0.0007130036932001394,0.03386721288644895,0.016789801930175836,9.825971605970865
55,1786799101,921412813,1786799101.921413,7.417109193717556e-05,0.0004154223515781015,-0.7015780898506137,-0.7125924541871627,0.00014524924124019315,0.000776933488827534,-0.0019547266028268353,-0.018375603758453454,-0.001015767232899465,9.799519076263735
56,1786799101,930688853,1786799101.930689,-0.0023011325060088975,-0.0008288154486975988,-0.7002418657615312,-0.7139014969090285,-0.001107035637366424,-0.0020987624743324237,-0.0002987784382897912,0.02042456200181386,-0.004759021152017339,9.803721533836393
57,1786799101,941487712,1786799101.941488,0.0006361669113214721,0.000256108950338121,-0.6988041658762756,-0.7153127060620617,0.0011398146032296458,0.00116294064952829,0.0010169176171665704,0.007484808699250562,-0.034357523803459036,9.81087472822389
58,1786799101,951132084,1786799101.951132,0.0011303148912390462,-0.00121494020851225,-0.6937439962613395,-0.720219767820825,-0.0005317499019335556,0.0012865065162615315,-0.0023512805366341567,-0.011064807782127963,0.02944121193747903,9.839347047351373
59,1786799101,961871872,1786799101.961872,0.00021760686537947063,0.000378798720342379,-0.7005171237500897,-0.7136354591047752,-0.0014072270401390976,-0.0007761795803367393,-0.0027780800238061862,-0.005094235260239156,0.03362500743374362,9.821495826432715
60,1786799101,971698339,1786799101.971698,0.000690941075298556,-0.0002951716996734225,-0.7013430401467668,-0.7128235233995781,-0.002227887607150772,0.0005003870554137753,-0.0014009396494252474,-0.008654566008618124,0.004619395513080163,9.812386365812523
61,1786799101,979035936,1786799101.979036,0.0008868445150769794,0.0013345467258621003,-0.7025297681316488,-0.7116525538356021,0.0005214006292489742,0.000610243506261426,-0.0008469389291489026,-0.015894406884265612,-0.005501248063245491,9.787792368395793
62,1786799101,988657468,1786799101.988657,0.002488897788653508,0.0008350724348930163,-0.7102763493391392,-0.7039180460900908,0.0003361055279761048,0.00046517451154596385,-0.001564155517073938,0.01504407782463291,-0.004604370349558586,9.800284021192661
63,1786799101,999472815,1786799101.999473,-0.00018938177747192437,0.0014558099040140882,-0.7032193482265618,-0.7109714431901435,0.0020974598224782694,-0.0004961717291969325,0.0008151423965312683,-0.016724327831769727,0.02385637260152408,9.801322455206673
64,1786799102,9216185,1786799102.009216,0.0023013036007644887,0.000225857085330295,-0.7058342632377097,-0.7083732390696262,0.0036025768743448623,-0.00039541969794826525,-0.0015334766059909926,-0.0005854646082410263,0.0048301623692207345,9.805014129879698
65,1786799102,20136254,1786799102.020136,-0.001554588124599653,-0.0003855994833340734,-0.701891612972557,-0.7122819653813957,0.00038173923983116304,-0.0018853641198036087,0.001813586940529168,-0.01971325272710748,-0.021039480510678808,9.820846194977017
66,1786799102,29779257,1786799102.029779,0.001884795786330739,-0.000987824871659364,-0.704815675513949,-0.7093872956972676,8.987452584213028e-05,-0.0010297588321131518,-0.002803276308429421,0.015436941876133621,0.010443997150226087,9.851948300549248
67,1786799102,40522786,1786799102.040523,0.000550834794004313,-0.0006378919593146806,-0.7118757272118287,-0.7023049470717889,-0.0005154110121372107,0.0016546910538300025,-0.0032960169610619077,0.005559525932761618,0.027978038764400696,9.824199210469313
68,1786799102,50239695,1786799102.050240,0.0001787351282759185,0.001535622751209793,-0.7010658042512489,-0.7130949081476249,0.0005487556556764439,0.0009477662387869895,0.0025316627858076803,0.035638747134396874,0.0010661628702311942,9.841495816700098
69,1786799102,60922884,1786799102.060923,2.631285765438557e-07,-0.0007910180894911518,-0.7050903841390601,-0.7091170033816321,0.0008915705882943447,-0.0011095023675386658,0.0012713149925783977,0.008891307120207748,-0.020629217287137888,9.793423587503046
70,1786799102,70555392,1786799102.070555,-0.0005688994538800341,-0.0011660318659526567,-0.7196422550705672,-0.6943438207689674,-0.002725147308004272,-0.0006657493496642969,-0.0009485608024902293,-0.017587577430463245,-0.024920727781469924,9.778887272271275
71,1786799102,81284080,1786799102.081284,-0.00011863757771430825,-0.0015666332115647737,-0.7050409113115199,-0.7091648926466447,-0.0020604931307496863,0.0007429250371056451,-0.0024411549105437295,0.0053368042477485375,-0.014911725848462806,9.84172100762899
72,1786799102,90904828,1786799102.090905,-0.0015732972616385407,0.0013043274726397924,-0.7139205734037476,-0.7002237059229252,-0.0012638607263824777,-0.0007485530377973436,-0.0003954238107462491,0.007320297346030178,0.011210818331712181,9.782212947225807
73,1786799102,101707584,1786799102.101708,-0.00042940705523919254,0.0007827412704264683,-0.7036745920019025,-0.7105218304152523,-0.000979630408825274,-0.001635098374754546,0.002252980272148482,-0.011330146977615092,-0.015414943623329036,9.799460369739997
74,1786799102,111490803,1786799102.111491,-0.0006981296889109625,-0.00010725944780064136,-0.695234464219613,-0.7187826798634035,0.0038151314051869324,-0.004212908226994067,0.0003082536504676976,0.016933963861403393,-0.02340941004351389,9.814222727681583
75,1786799102,122852684,1786799102.122853,0.00029834401275105474,-0.00043261275843063673,-0.7116355616466076,-0.702548611298157,0.0012338512258114962,-0.0015858224636031775,-0.00103888270921894,-0.011111669593471415,0.014915875747972568,9.846840602609797
76,1786799102,128574540,1786799102.128575,-0.001135749412270398,0.0006332503780595663,-0.7081312157368944,-0.7060796629037118,3.887231178666193e-05,-0.0020036462769808384,-0.0005077823756331059,-0.0406150339427483,-0.012665305779279505,9.833200008157366
77,1786799102,139538752,1786799102.139539,0.0020220524941653092,-9.517014530590685e-05,-0.7139224162432334,-0.7002218832854181,0.0008824840574889881,0.002420876404632109,-0.0006225001875434101,-0.001298862111180191,-0.04397150693503137,9.826701894590572
78,1786799102,149426705,1786799102.149427,-0.001750465662312416,0.00036911638401776134,-0.7020357056953922,-0.7121395000643013,0.000955139354372664,1.1300421445153936e-05,0.0016949357253898897,-0.03920493472376601,-0.007100217604004262,9.756288768137512
79,1786799102,160510319,1786799102.160510,0.0009730193956991148,0.00045908760442832185,-0.6992896318705357,-0.7148376411676975,0.0006661382710875786,-0.0009128044930577812,-0.0006246707920042164,0.039128855494201586,0.006808705232183973,9.834489644278728
80,1786799102,170099659,1786799102.170100,-0.0005402428182048589,0.0010329864289791973,-0.6989021313185997,-0.7152163672029981,-0.0021545241396324975,-0.0013851051789491918,-0.0001543309974496405,-0.023693953372268827,-0.011060351684661018,9.773585024493437
81,1786799102,181010357,1786799102.181010,-7.152546937922261e-05,0.0010160361697458696,-0.7222975366514081,-0.6915816879457676,-0.0007302673732965905,-0.003342714155801977,-0.0014034576473577476,0.047516017492831866,0.014514004228075182,9.78933072967629
82,1786799102,190596177,1786799102.190596,-0.001429237985986136,-0.0007878803144153682,-0.7065692842430562,-0.7076419879343261,-0.0021803510299712487,-0.001641125267527484,0.0025111835637808885,0.013673679263999402,0.004465830118438285,9.802389629954407
83,1786799102,201263853,1786799102.201264,0.0002264365220160729,0.0007169454295692427,-0.7171023967808462,-0.6969674219408813,-0.00033554651832624514,0.001670022028452113,-0.00035432070922706096,-0.013386425265800202,-0.002592374970960484,9.848811731275552
84,1786799102,210961847,1786799102.210962,-0.001867460752709934,-0.0007616648950419896,-0.71348557021901,-0.7006670204499273,-0.000974303651494166,-0.0007131463024386443,-0.0009968318141430222,0.020419399072170843,0.01807205228736603,9.804487920941886
85,1786799102,221724328,1786799102.221724,0.0001521904286086913,0.000488514196178581,-0.7104796022940965,-0.7037176087863486,0.0009935186146547666,0.0003057085960765422,0.00041992542354162444,-0.004318664367585058,0.0008606004299966419,9.762838403841377
86,1786799102,231598877,1786799102.231599,0.0005254117271524462,-0.0011909841661925042,-0.710608494521246,-0.7035864360641707,0.00038284158828843487,0.0006179519489668789,-0.0023665390975767535,-0.01720161866840801,0.00512004654842528,9.766289324120944
87,1786799102,238940384,1786799102.238940,-0.0001259504810806674,-0.0008143687463450795,-0.718478186035126,-0.6955490041195488,-0.0018938190222587718,0.0005873842743009289,0.0007209987397368202,-0.007435828237648461,-0.027605453595872253,9.803949896883193
88,1786799102,248734788,1786799102.248735,-0.0006160906564570444,-0.00032818032018005165,-0.7201271379824642,-0.6938417815836443,0.0029409017267910224,0.0015427822346338813,0.0006351710458496465,-0.009020863058506821,0.020553601199502173,9.78198230819557
89,1786799102,259390960,1786799102.259391,-0.0008643803314737617,-0.0005995146800528082,-0.6999857422101664,-0.7141560432645472,-0.0011612411788005704,0.0036267425818036904,-0.003120669968936707,0.024315889125750795,0.008705193195273294,9.826754766627475
90,1786799102,269107084,1786799102.269107,-0.0008125946093647082,-9.201366119510247e-05,-0.701754666901051,-0.7124182189599604,0.003803602281652062,0.0020990107631672457,0.0008298530607685032,-0.029179976538360276,-0.02522884430644911,9.822120880304363
91,1786799102,280064850,1786799102.280065,-0.0010615303971799879,0.0003483998476673276,-0.7143893954089541,-0.6997474855245934,0.0003948088760338734,0.00028887904031344927,0.0019607596422424154,-0.0027730122221618536,-0.022813678264424583,9.817102738522484
92,1786799102,289732805,1786799102.289733,-0.0016067524487814486,0.0005209024553807774,-0.7037846498067782,-0.7104113693512731,0.0017705239812064804,-0.0029797539789726234,-0.0003833778095910351,-0.000701691074482368,-0.030418955364943358,9.79558531169394
93,1786799102,300906955,1786799102.300907,0.00039958753110241223,0.0006038910476009984,-0.71299354778866,-0.7011702193170697,-0.0008517655910338014,0.0020029786956534557,-0.002105629188110664,0.0016666573307880484,0.0009045283876432383,9.814217979056735
94,1786799102,310456192,1786799102.310456,0.0009517823889316969,0.0023228148086956884,-0.7000594940009564,-0.7140801100022138,0.002516638661847155,-0.0019126945405439594,0.0012567854939749003,0.018054331146757564,-0.02152179012231459,9.819085626410214
95,1786799102,321541389,1786799102.321541,-0.00010188281517342179,-0.0008932689990062126,-0.7151709440358993,-0.6989490056486154,0.0007506460743819203,-0.001377440323694162,-0.0008621375668298496,-0.013142324551740279,-0.02065747144192523,9.820599072709543
96,1786799102,330770918,1786799102.330771,-0.00041688458786360986,0.00017929936844948886,-0.7132208727039149,-0.7009392133405314,0.004904058749380953,0.0006525517826498263,0.0019463902265902566,-0.013948025468668057,0.003435867228883564,9.81323732303031
97,1786799102,341439749,1786799102.341440,-0.0004136801118319317,0.0010188148090849575,-0.7142581186670703,-0.6998815119742251,-0.0018453035448585185,0.0025280930460694893,0.0030557301659453846,0.007965168668353234,-0.0059260281699371085,9.794839281323386
98,1786799102,351140741,1786799102.351141,0.0008591570377049673,-0.0007922208499552697,-0.709690253913933,-0.7045128655566816,-0.001157956671431373,0.000850379114556317,0.00022263627150744935,-0.0035489592209355337,-0.009630901667307052,9.821032492656657
99,1786799102,362101224,1786799102.362101,0.0014276357061738766,0.0011296552686464476,-0.7144993366213741,-0.6996337496882785,0.0019204296794132032,-0.00041475018807870184,-0.00017551213162944203,-0.0062398895443532155,-0.005950603519628495,9.845244333070571
100,1786799102,371761797,1786799102.371762,0.00011416413990683524,-5.9290591036466943e-05,-0.7045721707426377,-0.7096323271005786,-0.0019257416664024676,-0.0003216355759821376,0.0012464829105797615,0.018967012571063577,-0.006194236785773037,9.812714230262602
101,1786799102,379213529,1786799102.379214,-0.0006759526375541064,0.0013383495898944852,-0.700775730565205,-0.7133800721629463,0.0018795050697186873,-0.0011067385110012176,-0.0006491338903826597,-0.02216511411669666,-0.017732185370605447,9.784914826415317
102,1786799102,388837327,1786799102.388837,-0.0025904234934432777,-0.0006621779807032894,-0.7100778278131097,-0.7041181219615515,-0.00040974799616793413,0.0021975680023078085,0.0009994687667014342,-0.006335326570093336,0.01336644265329182,9.801337674058502
103,1786799102,399581798,1786799102.399582,0.00066074804324405,0.0005877218560859529,-0.7126004150638162,-0.701569573489273,-0.0006589386051396852,-0.0021573866081119604,-0.0004793578163274672,-0.011528031246000924,0.0402319408175486,9.813029123002085
104,1786799102,409351849,1786799102.409352,0.0008419927893041891,-7.54415911567377e-05,-0.7156144138459992,-0.6984950222102919,0.001200567471469416,-0.00010363141647573573,-0.003078892042462907,-0.0055357940087531485,0.007688113721282981,9.81653988083608
105,1786799102,420159202,1786799102.420159,-0.0018122411268695726,0.0015882352610653286,-0.7060308146177935,-0.7081770132537405,-0.0001190266022996259,0.00043770709896619235,-2.1199673474871613e-05,-0.01955173353130185,-0.03471439912744531,9.826553716632748
106,1786799102,429932883,1786799102.429933,2.0051924975157166e-05,-0.0005327205816572085,-0.7086194037431568,-0.705590714540232,0.0001924668552691061,-0.0018530635287076754,0.0022166747002622797,-0.02732537002835747,-0.0325588225323344,9.809063212169356
107,1786799102,441114949,1786799102.441115,0.0001065959400372555,0.0012399619919842397,-0.7011980258378157,-0.7129654828199707,-0.0007863967670931413,-0.0011152293084670376,0.002065787451513282,0.024634170642630522,-0.018866361680374193,9.800449850355328
108,1786799102,450793535,1786799102.450794,0.000442950464208652,0.00014764181091893913,-0.6992244764506652,-0.7149020307210459,0.0003523083348084963,0.0020890821687916616,0.0023960479035800104,0.01273659939074645,0.010944675977373228,9.800090917088617
109,1786799102,461974986,1786799102.461975,-0.0012069823009898282,-0.002382912088740307,-0.6971044423804361,-0.716964616516857,-0.001118638299500693,-0.0024976415919479096,0.002252903575755903,-0.016411831544871344,-0.03798784565666667,9.783038099483312
110,1786799102,471300954,1786799102.471301,-0.00016794432789165483,-0.00020191451345019523,-0.7080839407163707,-0.7061282205979359,-0.000583780378386854,0.003679918639566423,0.0020202167426597653,0.008016222879583935,0.02758902958551741,9.80284667427619
111,1786799102,482633483,1786799102.482634,-4.342450422907014e-06,0.0003798165066831266,-0.7128499355622411,-0.7013164942374257,-6.418395380061086e-05,7.819032031447597e-05,0.0005539127014005334,0.0011279158430429167,0.015680643076112853,9.823457818291432
112,1786799102,488609127,1786799102.488609,-0.0010891051662488317,0.0006816037070161575,-0.7014057062611847,-0.7127610991703828,-0.0007857728110695476,0.0010233307248749585,0.0009086471701613434,0.027465539288834353,-0.0032524384420698545,9.812872156947007
113,1786799102,499772144,1786799102.499772,3.814831205448073e-05,-0.000494432598971199,-0.7103208710008825,-0.7038778404678324,-0.0014703555107419847,-0.0015412101691483326,0.0025209359603669294,0.020807294251596147,0.005640472490953133,9.810668258858925
114,1786799102,509192462,1786799102.509192,-0.0015770790559852341,-0.00017557004605006567,-0.7081583136875773,-0.7060518994748028,0.003347028360235428,-0.0003457799830505056,-1.6077217009272736e-05,0.04436686644622358,-0.0274481443308876,9.79681956257395
115,1786799102,519887848,1786799102.519888,4.622907120881777e-05,-0.0006837500120112661,-0.7069700439320148,-0.7072431599750961,-0.001395094776236004,0.001987261287265457,-0.0006134696805645006,-0.0005687123706112887,0.010923855654515653,9.795171666452744
116,1786799102,529636974,1786799102.529637,0.00037910222683512976,0.0002456326459269776,-0.7015189733438234,-0.7126506338906413,0.0004590507108427693,-0.0005163829505220391,-0.0011144811512557038,-0.03609115930702904,0.009956747859876509,9.822230619275283
117,1786799102,540451061,1786799102.540451,0.0014584570369416115,0.0006440407218187786,-0.7081050126303386,-0.7061053386021156,-0.0026458773409450994,0.0029302764111661366,-0.004317636140214918,0.0011246645445039433,0.019911207720931405,9.819078610417002
118,1786799102,550155451,1786799102.550155,0.0007439025003208613,0.0014391697210747597,-0.7155650703057469,-0.6985442044408611,-0.0005490729805467956,3.291731557741356e-05,0.0011196020593155112,-0.015437103738826867,-0.010335023391391524,9.772978555362469
119,1786799102,561195802,1786799102.561196,1.6030713239138209e-06,-0.00014875539306672222,-0.706994559363309,-0.7072189695560661,-0.0014351583109203016,-5.689016814648468e-06,0.002515406405684449,-0.0009201017210373852,0.015885516517960285,9.79033552414144
120,1786799102,570816627,1786799102.570817,0.0007784176250770647,-0.0007766675378054166,-0.7132173398526064,-0.7009420924634991,0.00028968922259154165,0.001173841865222616,-0.0012749909611420847,-0.02035771312161923,0.016079891991094875,9.79263977897834
121,1786799102,581769293,1786799102.581769,-0.0006080227239128653,0.00011725242198365601,-0.7024649752678394,-0.7117180446512446,2.7462624570727807e-05,0.00016977674347069463,0.0013806055789318328,-0.02759305612043847,0.007287508737229288,9.784152910330484
122,1786799102,591652866,1786799102.591653,-9.703436804607131e-05,-0.0013648405220005458,-0.7081131340850465,-0.7060976682661783,-0.00038787004405349003,-0.0027416040342118013,0.0008481163555054456,0.003975901694955884,-0.018384534391332006,9.807003344939027
123,1786799102,599211345,1786799102.599211,-0.0016498623815071195,-0.0011690134901861397,-0.7122671084579272,-0.701905604458723,0.0013721444336151493,-0.00024825541687393144,-0.0016392921622556767,0.009582642517717638,0.01630781298308598,9.790927256923057
124,1786799102,608794041,1786799102.608794,-0.0008497101298984991,-0.0003827422079891777,-0.7015581855914983,-0.7126115658131451,-0.0004793255049938186,0.0009035306812118951,0.0008207001749808365,0.015502502601414666,0.02919626559236439,9.812914634338016
125,1786799102,619851359,1786799102.619851,-0.000492969645503302,0.0005719063228032862,-0.7100552452315874,-0.7041455663591136,-0.0013042512716044887,0.0012311883772892103,0.001447132910252549,-0.007057848160021052,0.011704261989553159,9.801923703833921
126,1786799102,629204049,1786799102.629204,-0.0019332426820765569,0.0002430754696026744,-0.7091812197740087,-0.7050235464201869,0.004306941638401513,0.0013337204843654605,0.0004688706260565829,-0.025839994431873212,0.019981582299913776,9.788486650310086
127,1786799102,640094084,1786799102.640094,1.8572751493996437e-05,-0.0006926283108370261,-0.710030470622314,-0.7041706119321733,-0.0021154054736981943,-0.0005033052361903966,-0.0032222004892267114,-0.003674684122947024,0.021140866589657248,9.828315471080371
128,1786799102,649597733,1786799102.649598,-0.0012779158082412293,-0.0015672947364979302,-0.7048258945871897,-0.709377451599474,-0.0026197187513362663,-0.002000455321986783,0.00024112235121591364,0.004859741360156504,0.012424964676242186,9.827895854622419
129,1786799102,660780136,1786799102.660780,-0.0005134651648619231,0.0010524176476170337,-0.7111030182990267,-0.7030868553291504,0.0023179917727208146,-0.00018038084299939837,0.0006357221482216555,-0.023830435091830516,0.025179002007362204,9.843987819372213
130,1786799102,670019331,1786799102.670019,0.0007422915110730763,-0.0008048864689234977,-0.7092257144149077,-0.7049806289351139,0.0029028131271447133,-0.002456809987624475,0.00010758838773044363,-0.006995734419752145,-0.022977729849315492,9.84106715987628
131,1786799102,681090697,1786799102.681091,0.0006304268918788733,2.1838332910474947e-08,-0.7061691188260387,-0.7080429211413598,0.0007874982771199075,0.0002887946462140773,-0.001212871431946157,-0.03068190455819328,0.03558325215865184,9.827987977554292
132,1786799102,690523139,1786799102.690523,-0.0006094075772198711,-0.00020365794947915718,-0.7005033115323628,-0.7136488616105529,-0.0022208235541894303,0.0008045699773234301,0.0008961315839068296,0.009602405567317724,-0.012443839809419181,9.778175289872431
133,1786799102,701318557,1786799102.701319,0.0014690952084028047,-8.323905863492334e-05,-0.7120724668773736,-0.7021044343583792,-0.0022956440486301124,-0.0021641416292287013,-0.00034196172447265743,-0.0032920834047353094,-0.002951170980302969,9.828576256890804
134,1786799102,711037128,1786799102.711037,5.8130260565151196e-05,-5.774192112821534e-05,-0.713569513392673,-0.7005844294896136,-0.003973456526041594,0.0016177001915481939,0.0005480931907669342,-0.0021976007092313894,-0.02466492362827945,9.7917348616339
135,1786799102,721851732,1786799102.721852,0.0004300428954253921,-0.0012198343289034498,-0.7089828208659871,-0.7052245647906955,0.0007599114236148258,-0.001193530926385585,-0.002392171407099222,0.027124863179642595,-0.004580482023055686,9.805758192784722
136,1786799102,731486646,1786799102.731487,-0.0008206556425018008,-0.0008914968749922282,-0.7178074172154881,-0.696240650600113,0.0021217278785046535,0.0002809388400970044,0.002741509057601021,-0.003236995895306089,0.016516523557890465,9.795392797126416
137,1786799102,738899220,1786799102.738899,-0.0005741473785239805,-0.00278604882930779,-0.7102092727464054,-0.7039848700019983,0.00045455097820921173,-0.0034167373653926562,-0.000313270867909542,-0.003977772254997283,-0.02036482584345556,9.780688430537348
138,1786799102,748525638,1786799102.748526,-0.001116257449458784,-0.00041318992536629797,-0.697982875331077,-0.7161134609738561,0.0004371897814993507,0.00030006639090988143,0.00101161795035747,-0.005666509932755823,-0.012060070417406837,9.807035108829997
139,1786799102,759206541,1786799102.759207,-0.0005568542630785919,1.6734578958878143e-05,-0.7091739495964531,-0.7050333317276929,0.000518998102849699,0.0005908737541561189,0.0014477471050616149,0.003554815053362266,-0.012435912244299118,9.799496227008508
140,1786799102,769054106,1786799102.769054,-0.0009609073718453834,0.0003399139037463444,-0.7039214433265832,-0.7102771027849488,-0.001397103479074843,-0.0013638319510165234,0.003810539177253237,-0.0017756968695393372,-0.001300000262330601,9.80920732516254
141,1786799102,779981297,1786799102.779981,0.00021314544131962424,-0.00017010168762748572,-0.7089649118118215,-0.7052437021725844,-0.000913089252119192,-0.00021569758086072878,-0.0002173622172196195,0.0007121655575239779,-0.024829143195220355,9.83792921684119
142,1786799102,789767146,1786799102.789767,0.00023184676887060929,-0.0015453487104308333,-0.7027359293438543,-0.7114490647640689,0.0002954016563075003,0.001869352819821688,0.002889758757011776,0.04020535546866542,-0.028800100282235053,9.789726687647688
143,1786799102,800540048,1786799102.800540,0.0010464278959845474,0.0006727178318389948,-0.717447190851147,-0.6966117862763845,0.0005592158847842825,-0.0012119277426961765,-0.0023600074860052624,-0.0065761840795125195,-0.02101907028339485,9.783270815558836
144,1786799102,810393578,1786799102.810394,0.001505759779274844,-0.0004033320155463906,-0.707845847410998,-0.7063652216196511,0.00012396410538163068,0.001642267018155394,0.001022341415742154,0.03897301570994971,-0.008860524378766438,9.797566972734527
145,1786799102,821190142,1786799102.821190,-0.0011318985046981933,-0.0016193989854971795,-0.7081411918964546,-0.7060680906910959,-0.0015411189337723168,0.0019737054685986704,0.0007762848739891741,-0.026186992582948963,-0.0035034825272314708,9.830285832312118
146,1786799102,831127267,1786799102.831127,-0.0007234526346426396,0.0020607571462931875,-0.7106175064211053,-0.7035751484128188,0.0005993200275665842,0.001615953532590843,0.0019277111800301454,0.0326805839048683,0.01332760523895193,9.846949339732165
147,1786799102,842495479,1786799102.842495,-0.0007342205995843054,-5.365821296725834e-05,-0.7145734432235393,-0.6995600419410493,0.0004256778861658146,-0.001743472975665122,0.0011409576928708884,-0.018491599611076274,-0.022222459848455726,9.792026930591245
148,1786799102,848770272,1786799102.848770,-0.000552654296295153,-0.00030859404183706504,-0.7149620701278,-0.6991629549836841,0.0012461781502071537,-0.00282846830906187,0.001547590417420204,0.00731588631740272,-0.03683837473287708,9.795487399952426
149,1786799102,859805940,1786799102.859806,0.0011091709754584831,-0.0015580863647057536,-0.7071343955498457,-0.7070765791178364,-0.0020191253060174055,0.00040462818616243044,-0.0004890619100700584,-0.014389241170766164,0.017349333864916102,9.79955688962589
150,1786799102,869302092,1786799102.869302,-0.0006613926199193275,8.919329006492938e-05,-0.7085175468376621,-0.7056928796774846,-0.0018473258259661593,-0.0012954741021338834,-0.00042242628430728534,-0.031060923695280844,-0.04093947440746951,9.775551184317411
151,1786799102,880425321,1786799102.880425,0.0003126330091004954,0.002071890910733081,-0.7057419267392429,-0.708465907698484,0.0012204670086759192,0.0025911159336701505,-0.0018540899920719018,-0.003605828526309817,-0.01627012196002508,9.80695861229182
152,1786799102,889962366,1786799102.889962,0.0005221531660435927,-0.00024030131706413393,-0.706160111202196,-0.7080519521604685,-0.00021055327048956758,0.00046382933418522915,0.0017550851475980702,-0.0037299110460346755,0.018512303035759608,9.829685635085946
153,1786799102,900642604,1786799102.900643,-0.0008371638259328581,0.001050848145643263,-0.7117927604544428,-0.7023882551976134,-0.004553905280690914,-0.00015257365125394924,0.00100750682420903,0.039671163999737365,-0.0026730537212754225,9.80031361644941
154,1786799102,910453395,1786799102.910453,0.00023062337966552678,-0.0008542909091648495,-0.7095990710007323,-0.7046051202161372,0.001427375332888361,0.0020621357083129223,-0.0014166871655372612,0.02129724588329503,-0.018412400538010597,9.818436401405785
155,1786799102,921256146,1786799102.921256,-0.00018688107089909867,-0.001776511017090859,-0.7142616326163654,-0.6998765100046406,0.001229507641162036,-0.0003057047223066721,-0.0017886945001341242,-0.010941332327473841,-0.014579363002097572,9.822934211642824
156,1786799102,931002144,1786799102.931002,0.0005093674812032126,-0.00032643896087840367,-0.7126944365925549,-0.7014743573591231,-0.0002669762524034214,0.0013566070790198305,0.0033281258005696075,-0.04040733870965007,-0.0494638469811011,9.811685122018055
157,1786799102,941823729,1786799102.941824,0.00012450785371399893,-0.00023046502001581885,-0.7100219508332435,-0.7041794946734989,-0.0020647336870283596,-0.001522969283111966,-0.0005442407987065205,-0.0052192801616982865,-0.0018907865058634937,9.859985048166294
158,1786799102,951900274,1786799102.951900,-0.0013227461250255724,-0.00033966218716842184,-0.7038796110925781,-0.7103179767262325,-0.0023752139442566986,-0.0007509425886330435,-0.0012183769745323111,0.016268788869006783,-0.003358533993898401,9.79506045338457
159,1786799102,959392565,1786799102.959393,8.221777220211718e-05,-0.0004490255898042166,-0.7128856096262441,-0.7012801859485809,0.0018658331505498466,0.0031063892086550015,0.001118531462742916,-0.03270406066499799,0.002095757045395223,9.811641588531556
160,1786799102,968883336,1786799102.968883,0.0008578076526436828,-0.0005203639984366679,-0.701189139027883,-0.7129746031217918,0.0008143385635411495,-0.0007121978610845479,-0.0027886131847118935,0.025037840279487383,0.034764229593578,9.767565487009808
161,1786799102,979636831,1786799102.979637,0.0003487558879210148,0.00013793115058058407,-0.7074980151963968,-0.7067152310778986,-0.0009027082206306745,-0.0008799373549451938,0.003364056897740344,-0.025321382096724812,0.004548076953789754,9.800947693112256
162,1786799102,989364516,1786799102.989365,-0.0009915028795219156,0.0006452301103305292,-0.7138790224893748,-0.7002680499992552,-0.002663252221643097,-0.0016487967523903125,-0.000439423772944296,0.00511519813322094,0.0198718561789557,9.824086222458453
163,1786799103,406787,1786799103.000407,-0.0016139318650941824,-7.708273702368657e-05,-0.697589952857007,-0.7164953921381111,2.0339307164268047e-05,0.002630107032871406,0.0010859822945483845,0.00659157748289131,0.03958928978456942,9.834241927102275
164,1786799103,10006627,1786799103.010007,0.00034927792789943263,0.000271750101812315,-0.7104287037390273,-0.7037690395722851,-0.0013690530474144561,0.002450527610816168,-0.003310336824563208,-0.0069369153939045835,0.030300567736199293,9.7973233760422
165,1786799103,20920136,1786799103.020920,-0.0013805065564525922,-0.0012257708768646854,-0.7070607987867176,-0.7071503507080329,0.00029433308706375446,0.001982746593096203,0.0003467793217545504,0.012974481073132402,-0.00518253084151594,9.810443005765237
166,1786799103,30836150,1786799103.030836,-0.00021396464788452107,-0.0017076554285563887,-0.7046524390207557,-0.709550546694291,-0.0006355374678626192,0.0019957230489664438,-0.0014082456221610894,-0.01177218799670857,0.02709729523282523,9.83181313942182
167,1786799103,41681474,1786799103.041682,0.0014620071687668568,-0.0007308002785901945,-0.7017294951207165,-0.7124416075325863,-0.0005226337092343686,0.00019906034245472518,0.0017353242161457652,-0.019802033001704335,0.015132506151322302,9.80205826991023
168,1786799103,51472371,1786799103.051472,-0.001686307068948412,-0.0015573401692159977,-0.697383730351891,-0.7166942609652651,0.0005277659670944432,0.0008544999036319381,0.0020904948291144503,0.03657145259059895,4.917299936126345e-05,9.814855786086813
169,1786799103,62548164,1786799103.062548,0.0008428987662287414,-0.0002520098718802052,-0.7094872567450022,-0.704717715492626,-0.0011453616489628508,0.0005484644459518757,-0.003342630349136353,0.03399479637117779,-0.01855488693380621,9.821487010328152
170,1786799103,68501707,1786799103.068502,1.6406184220374366e-05,-0.0007451982053761152,-0.7039428509660112,-0.7102562262904256,0.0006265275701921987,-0.0012623705678552718,-0.0005954473650916318,0.026039564627744302,-0.0026098323982771893,9.793481746015397
171,1786799103,79635490,1786799103.079635,-0.0012588541997345499,-0.00052119915707275,-0.7057724754538623,-0.708437263650967,-0.0012397429125133334,0.0031237388412196595,6.120033612031098e-05,0.0009450207188294478,-0.030403114551452778,9.788517881611108
172,1786799103,88987283,1786799103.088987,0.0005851635262446613,-0.00027252470927149723,-0.7083720924971106,-0.7058389064688879,-0.0012745572055889427,-0.001343828541510621,-0.0002868299258041331,0.019206773737363132,-0.009496444472962799,9.777126916237364
173,1786799103,99710304,1786799103.099710,-0.0011006984634371767,0.0010488605546785663,-0.7129153092201901,-0.7012484939263044,0.0008710858565881519,0.001979024467395178,-0.0007185877169906175,0.011142227481251214,-0.021198713104996682,9.818471944465374
174,1786799103,109627717,1786799103.109628,-0.0005336707968677815,0.0016212587782374736,-0.7175429913856761,-0.6965121264046665,-0.0014699948117059553,-0.00048217201767464626,0.0010298877134491756,0.024148592631060183,0.006769949442209357,9.79888686335049
175,1786799103,120385625,1786799103.120386,-0.0006568898643424933,-0.0003657269880687655,-0.701484549443271,-0.7126842650373638,-0.002186559519836853,-7.37226039091996e-05,0.00014267388542205767,-0.0025186970153418782,-0.005655098921534841,9.803261521732999
176,1786799103,130211581,1786799103.130212,0.0009307117643305785,-0.0008841776036868617,-0.7164174204122482,-0.6976707187029116,-0.0006939135262919913,-0.003417125284957959,-0.0006710445764768278,0.02843452351304314,0.021126076785039066,9.779499399817423
177,1786799103,141064771,1786799103.141065,0.00032501153944563144,0.0020623275320945465,-0.7026434683549156,-0.7115390344533632,-9.394927229984096e-05,0.0020841031601698057,0.0030286061027585,-0.02963735235586043,0.012562991513133302,9.788728871812248
178,1786799103,150957015,1786799103.150957,-0.0009268139722934935,-0.00046047639129082453,-0.7112296231628816,-0.7029589974621133,-0.00325384862376572,0.0018243290462854184,0.0018963790566130106,-0.0008616272301872789,0.0023224123964658886,9.820454733512644
179,1786799103,161885135,1786799103.161885,6.818086156721625e-05,-0.0010834746754316098,-0.7085257306184622,-0.7056841435696086,-0.001069810864120626,0.0008188422585137049,-0.0005476439115765096,0.012119453754609131,-0.019783062102929107,9.825023987695584
180,1786799103,168336813,1786799103.168337,-0.0015084197285161283,0.0013690503631813332,-0.705892396372683,-0.7083161547743048,0.002617164188238393,0.0038983662393929966,-0.001176051261060674,0.021013903109463817,-0.019470015064484685,9.791256309299698
181,1786799103,179185316,1786799103.179185,1.3157061675308923e-05,-0.001981411209211383,-0.7255346465002672,-0.688182788628315,-0.0017811514227895663,0.000737624226272323,8.845560574019123e-05,-0.0037242852490185986,-0.07962460041773911,9.807541335276508
182,1786799103,188822909,1786799103.188823,0.000519760353544687,0.0016339627239687958,-0.7047624181729979,-0.7094413252312979,3.4352610836718554e-05,-0.0006458237318735446,0.0010990173646249404,0.031035454179652845,-0.004709224038800039,9.809804048527724
183,1786799103,199726437,1786799103.199726,0.0014465410544812196,0.00037722966312561895,-0.7084023914449997,-0.70580720952096,0.001741290290563343,0.0009125721680790541,-4.260797366009128e-05,-0.024398332619168035,0.012478977798814324,9.814254277674099
184,1786799103,209531037,1786799103.209531,-0.001109862821346725,-0.001035506276238469,-0.716992368557227,-0.6970793637470323,0.0034819736802027775,0.00040302039291543443,-0.0005346316914578147,0.030893578405613548,0.02146857719073233,9.811047471958872
185,1786799103,220368535,1786799103.220369,0.0002006165686223974,0.0007888333935530361,-0.7030297885367393,-0.7111599355453438,-0.002873058105184316,0.0012975075434595034,0.0006908532043943186,-0.034710953838309404,0.004932824894409849,9.79473237568348
186,1786799103,230208664,1786799103.230209,8.016460656445402e-07,-0.0009279264248137817,-0.7088080229110549,-0.7054008262036762,-0.0022553746113356775,-0.003181712798830563,0.00233508762701998,-0.014747137945522697,-0.005789424704902248,9.79251445047127
187,1786799103,241082226,1786799103.241082,-0.0007493666839757671,0.0008303285218895227,-0.720025337299055,-0.6939468730756706,-0.00333888422185219,0.0007274976934083027,-0.00177132016035238,0.005453217405287008,-0.013080034388634133,9.833245603920698
188,1786799103,250873400,1786799103.250873,0.0014775407784805789,0.0002566384879151203,-0.6975835049239731,-0.7165019223058091,-0.0013985075573479595,0.00027095294929354555,0.0007952279324807289,0.007724185905785004,-0.010212452001152396,9.82030650140137
189,1786799103,261747928,1786799103.261748,-0.0008381602134084581,-0.0022891193121860024,-0.7208351662906812,-0.6931022438709294,0.0035116732771964016,-0.00059035698523603,0.0013990656254716824,0.008269784549214967,-0.017683097521857732,9.824557682844606
190,1786799103,271423227,1786799103.271423,0.00034576965210551987,0.000167870801090554,-0.7202933715576574,-0.6936694538127253,-0.0015801015382721246,0.0004815437808702972,-0.0009555662363026567,0.025495381377961385,0.010121335400501127,9.842991656804722
191,1786799103,279010915,1786799103.279011,0.00033358108567517036,-0.000515045744559225,-0.6987291923792378,-0.715386007109867,-0.0013286256035400822,-0.0019000681675345233,0.0007515806872421902,0.005222312653045231,0.0017090237317170167,9.798031878865187
192,1786799103,288738484,1786799103.288738,0.0007514832111354374,-0.0006677561673056162,-0.7070575331788673,-0.7071553111938702,0.002736261598717698,0.0005099559540067672,0.0010452590876592852,0.00620591776718351,-0.01088865328861841,9.8203026119232
193,1786799103,299438048,1786799103.299438,0.00026400046804394146,-0.000548390780877998,-0.7094568515716047,-0.7047486114419883,-0.0013180972313573808,-0.001528280914580043,0.0022444461128793775,-0.02838067091309699,-0.0025114828085733122,9.787758896966903
194,1786799103,309321867,1786799103.309322,-0.00048500063427125056,0.00037617825080633985,-0.7095589173391427,-0.7046458444415976,-0.00048499995364454713,0.0016932052604854385,-0.0024448415779874284,0.03326747139327671,0.011160393452422583,9.811915881686486
195,1786799103,320229742,1786799103.320230,0.0019996244904440918,-0.0006855899276725243,-0.7110572486068386,-0.7031309413416685,-0.00028102953828309987,-0.0004363561760633803,0.002781439697386306,0.02286271181659999,0.021581435844083417,9.827857284422329
196,1786799103,329985371,1786799103.329985,0.0008702101286889461,-0.00036714892655982775,-0.6951274915008985,-0.7188858591568388,0.0020183906184705696,0.0003787809965480005,-0.0007973767970383215,0.02557651118143589,-0.009959127158918083,9.80345922643913
197,1786799103,340850169,1786799103.340850,0.00021755504603101187,0.0008575850304938444,-0.7175474432357186,-0.6965090695199888,0.0012586604982107693,0.0014879224752823877,0.0004967051433552294,0.04414361012341562,-0.021412865096464076,9.815444333618881
198,1786799103,350584603,1786799103.350585,-0.0006895732408122448,0.000457778943203877,-0.7012017458601172,-0.7129624299568025,-0.001581759882708452,0.0003038165189718479,-0.0006159002673422869,0.008884518511237014,0.017344587087869564,9.74990175185641
199,1786799103,361475620,1786799103.361476,0.00015067740831088951,-0.0013969313302083332,-0.7124385098210755,-0.7017331370279607,0.0012173493075975934,-0.002595671912627984,-0.00042943217713669945,-0.010143141812900032,0.006308834936290404,9.83037378500311
200,1786799103,371273477,1786799103.371274,0.0001206946968408189,-0.0006571864053703284,-0.7124135334680102,-0.7017595819584106,-0.003920812797811053,-0.0010301901336574638,0.0008041907110231994,0.005067871840736887,0.03143186794126268,9.824577622312535
201,1786799103,382229594,1786799103.382230,-0.000642787464919497,-0.00032001949030160054,-0.6991856730289173,-0.71493977301791,-0.0021128009800970514,-0.0004499004504597868,0.0006371806643772873,0.023057277354029168,-0.00034030562821344047,9.793701939646562
202,1786799103,388676949,1786799103.388677,0.0005067744394122778,-0.0012343782462349436,-0.6927179341552316,-0.7212073787682161,0.002100876142620814,0.003309082730038874,0.00010429846324691668,-0.005925759390439538,-0.005096510614708165,9.811313958629766
203,1786799103,400468671,1786799103.400469,-0.0008349826700227677,0.00023219569410518862,-0.7135154488561958,-0.7006389606156954,0.000986924532623476,0.0008878395093279527,0.001730213778581591,-0.013115084522823443,0.008245092236942595,9.803869291845997
204,1786799103,409333751,1786799103.409334,0.00041370926991928414,4.1218851190024725e-05,-0.715076410993819,-0.6990461741443446,0.003679551600590858,0.0011844792079852998,-0.0006774855572343161,-0.0035240734718423837,-0.024002786024706315,9.805541631176402
205,1786799103,420352507,1786799103.420352,0.002937374091953637,0.0007719026995272513,-0.7221995139703947,-0.6916781318074123,0.0037094392755001784,-0.0006772657194504881,-0.0019039944444686821,-0.007859345450507219,0.020907699809001985,9.828447391859891
206,1786799103,430066646,1786799103.430067,0.0006234130572194324,0.00024099919554424615,-0.7026302387534624,-0.7115548474044713,-0.0009425132920622328,-0.002762125523185736,0.0009686638893119812,-0.03319918138137948,-0.0030999535799122752,9.822481257008754
207,1786799103,441862022,1786799103.441862,-0.0009684062349558241,0.001523757642964803,-0.705296987273129,-0.7089096558063359,-0.00295579234810968,0.0014591011568797665,0.003714471070234289,0.006713791962931507,0.03204518663758575,9.789117463524198
208,1786799103,450695330,1786799103.450695,-0.0008483959360941302,-0.0005004042854002091,-0.7118288900170502,-0.7023522343931008,-0.0004286547208107744,-0.0010862815886586337,0.0013788697255918837,-0.025636257460283467,-0.007742930684156609,9.807075909246548
209,1786799103,461466652,1786799103.461467,9.58081821792452e-05,-6.642147714995994e-05,-0.7145295532428029,-0.6996052486592852,-0.0027755871223949648,0.0005432246622797646,-0.0005092727593851047,-0.0007656632083060862,0.02091613582836258,9.810584944484257
210,1786799103,471079717,1786799103.471080,-0.000704058352419068,-0.0010038565364455412,-0.7188561922865656,-0.6951577312992722,0.000778269172831108,-0.0013294407376026002,-0.0002647128111790787,0.008601039157820688,-0.004852451063307205,9.815419462977237
211,1786799103,482982263,1786799103.482982,-0.0009704652921532297,0.00047503727904074937,-0.7100060870858537,-0.7041947094644602,0.0031210635246116873,0.003869208693554436,-0.0005725169948641301,-0.005352404686126722,0.0041844908276371315,9.821595298068841
212,1786799103,488565036,1786799103.488565,-4.3180871924585874e-05,-0.00021166224078110468,-0.7030462768830769,-0.7111440683120068,-0.0015656490964240043,-0.002195471772488747,0.004308875474592088,-0.041429728587370936,-0.0009073224320302954,9.828793834869009
213,1786799103,499990760,1786799103.499991,0.0012112271436406541,-0.0011767919570422436,-0.7121149031804254,-0.7020609038807316,-0.0017009295872431147,0.0003103489992357443,0.0015617479506658735,0.020785752793435173,-0.004547531784695246,9.830965356802807
214,1786799103,509179944,1786799103.509180,0.0005809300620613421,0.0004214130884873182,-0.6983336901588129,-0.7157719903156641,0.0009680300648143676,-0.00012394223733876232,-0.0025466815634474604,-0.028429886078504114,0.01471741076799236,9.8582536172499
215,1786799103,522216968,1786799103.522217,0.0019592586563122166,0.0017827285735975843,-0.7014714524457786,-0.7126926298117306,0.0005097729524847059,0.0028703789176967105,0.002127653234400426,-0.018284775742314182,0.0024816358420250593,9.817551715556657
216,1786799103,530516739,1786799103.530517,-0.000943974961084096,-0.0005691775458664617,-0.7096411447248842,-0.7045624391505342,0.0007075853274681371,0.0021821449313897813,-0.000931727952655002,0.02331751180532858,-0.014531518295484403,9.800227629171804
217,1786799103,541215677,1786799103.541216,-0.0015337385865606575,-0.0002628430245406201,-0.706653536281216,-0.7075580246317222,0.001679656099068183,0.0019828947723054824,0.0013138481061284908,0.0024538965402655594,-0.04463362347398611,9.807478211307783
218,1786799103,550738279,1786799103.550738,-0.00035396571965255915,-0.0009453320478985986,-0.7153066919268359,-0.6988099294803095,0.0006409397608618912,-0.00024820958673048754,0.0010057516400738945,0.009811056288006688,-0.007258139720700121,9.830554384658164
219,1786799103,561539438,1786799103.561539,0.0005257538578593097,-0.00019234801400843526,-0.7123598665878967,-0.7018141542174798,0.0002934079852122265,-0.003323057206089017,0.001473485021125452,-0.007769619800709022,0.01646460956134254,9.836861829433182
220,1786799103,571122157,1786799103.571122,-0.0004969973481259009,0.00161119937148809,-0.705170696220215,-0.7090355747228193,0.00012587941934611796,0.0008088797544312717,-0.0009456518909766936,-0.04508881617552678,0.002276548697813889,9.822612194111281
221,1786799103,581890303,1786799103.581890,-0.0016588746093110216,0.00047655943415232367,-0.691875103255895,-0.7220151400911072,-0.0004198244349772494,0.0012553991913670662,0.002514587151613572,-0.01836273261507352,-0.001401819032613851,9.800236816621046
222,1786799103,591502676,1786799103.591503,0.00012236816032169093,-0.0005126442953513564,-0.7094514932812281,-0.7047540712212279,-0.001668473237528538,0.0019048556328154938,0.002704691817071327,-0.0025813085906540756,0.00705451321404592,9.807812342232186
223,1786799103,598850949,1786799103.598851,-0.0012688841035348216,0.00016484980794061123,-0.6998005486406448,-0.714337143707315,0.0017277267465979726,-0.0002697087761241134,0.0034014362590817546,0.016657308982354933,0.0015747007625763788,9.805586009243537
224,1786799103,608650594,1786799103.608651,-0.00046196881302884433,-0.001635967665308805,-0.7104213996368136,-0.7037744987797474,4.8597756799091306e-05,-0.00010874660704521803,0.0012246082419831803,0.017182017049302428,-0.016144564653208904,9.81236659123589
225,1786799103,619438677,1786799103.619439,-0.0005134128709666625,0.0002655093407941974,-0.6999128896766387,-0.7142279837534451,0.002170983458143658,-0.00239020951337588,0.00042833731011905114,-0.025195786283491787,-0.0011080760575552355,9.814509105000926
226,1786799103,629244398,1786799103.629244,0.00020798277491080336,-0.00018379818767329283,-0.7109071680256682,-0.7032858035046037,0.0011292785095302774,-0.0008665702429432766,-0.0022536688833395646,0.023792487546698868,-0.02208345195016166,9.817453395455603
227,1786799103,640136385,1786799103.640136,-0.0003674054255333703,-0.001282888472232659,-0.704190539834632,-0.7100097906492775,0.0023813466585299254,0.0033676262361959476,-0.0002452644672992833,0.0018360744375609454,0.02212602452759237,9.803682444259744
228,1786799103,650138773,1786799103.650139,0.0003205104788781689,0.0008749348985784942,-0.6957042907926383,-0.7183276909145773,-0.0008151942920568319,-0.0017831120338484946,0.0014485134685685986,-0.013713996328725468,-0.002370752055250276,9.791820210969718
229,1786799103,661554069,1786799103.661554,-0.00021659964870177566,-6.326998676116745e-06,-0.6992671404521702,-0.7148604194725054,0.003758641914956538,0.0007068880305539659,0.0013089756499865574,-0.0074808742584213045,-0.007575543913220248,9.819912530926064
230,1786799103,670847267,1786799103.670847,-0.0004529959381638175,-0.0003321245247435639,-0.7171865710572872,-0.6968809846617076,-0.0003012388026404309,-0.00017525657704414211,0.0003882648577803907,0.01000454225049874,-0.00408723037996152,9.81272034319411
231,1786799103,681939650,1786799103.681940,-0.001364057839531702,0.00013560181728091076,-0.7065534230546753,-0.7076583789711521,-0.00030141349853198647,0.0006592482867553845,0.0018168917174292145,0.0055567804067209094,0.013437207039075586,9.787895518765652
232,1786799103,691355601,1786799103.691356,-0.000794576411728856,-0.0001847815303578475,-0.7168271010263255,-0.6972504870835919,0.0014414037137072777,-0.0013888244094116503,0.0003498353569001269,0.0008360886701620698,-0.007774925413040713,9.796350272390445
233,1786799103,702335501,1786799103.702336,-0.0009090839483620871,0.0014641731468417723,-0.7131384194556508,-0.7010211298239643,-8.292611494846473e-05,0.0010207674226981411,-0.0006789612314084089,-0.007416435747296939,-0.03389262035547956,9.790733384274416
234,1786799103,708453977,1786799103.708454,-0.00011227698938293343,0.001020308714698607,-0.7164664929446216,-0.6976207500151059,0.0025327508826850737,0.001057511878247258,0.0043307005433011825,0.007786661909754098,-0.030140755535239257,9.834100451046156
235,1786799103,719287314,1786799103.719287,-0.0008485495863451598,-0.0009314991379866728,-0.7165042737611254,-0.6975815636576113,0.0015604353125006033,0.0016938208657497488,0.0011852386110030577,-0.022255896784932668,-0.01955210022708222,9.850441992378562
236,1786799103,729012592,1786799103.729012,0.000930295140741733,0.00024008573788671946,-0.7145090195304474,-0.6996255698010388,0.000415955838062918,-0.0004946144426401576,-0.0005092064126871541,-0.003152677027850005,0.012819929934900994,9.825335614780894
237,1786799103,739943230,1786799103.739943,0.0009965100152096677,-0.0005424775006782136,-0.7165079721177344,-0.6975779802844143,-0.003325406683746781,-0.003202272876179307,0.0018892859879549723,-0.025835531084312552,-0.024828416833012124,9.8464865676383
238,1786799103,749710292,1786799103.749710,0.0004654022187664734,0.00014702557752929534,-0.7073620855223499,-0.706851216133725,-0.0017831723306184443,6.353837880780643e-05,-0.001528451689467621,0.00853686196937221,0.013351595132619786,9.777619930539796
239,1786799103,760587846,1786799103.760588,-0.0019233956691225133,-0.0003669821796480745,-0.7077678863066522,-0.706442343709799,-0.0017694791186257826,0.0003259724258757645,-3.843099153846548e-06,-0.019168991135110988,-0.023463244949813923,9.827261876683975
240,1786799103,770208959,1786799103.770209,-0.0010978005664007975,0.0005341005645766875,-0.7035167586098612,-0.710677620250967,0.0022925925755218454,0.0005415228470897728,0.004117594411472454,-0.01134753006029559,0.010970438321444032,9.795915313552179
241,1786799103,781148558,1786799103.781149,0.0007470167537373311,0.001248134822563457,-0.7079427114337823,-0.7062683636219443,3.621866245255653e-05,0.00249659235471444,-0.0010190716591709436,-0.030510075929364316,0.04916225688760796,9.809341958478612
242,1786799103,790816545,1786799103.790817,-0.0003986615155765727,-0.0009870653334233522,-0.709505979736399,-0.7046986103926389,-0.0005751759105581183,0.0019735576417368025,-0.00234596582448834,-0.03005387068388406,0.02088410119455689,9.792289962821844
243,1786799103,801565982,1786799103.801566,0.002289506010092339,-0.0017901675337420975,-0.720805017031092,-0.6931317918586899,0.0007499578996179934,-0.0005838559841697733,-0.00020466583282766532,-0.009587073712181041,-0.00682950611485957,9.796755974877854
244,1786799103,811268203,1786799103.811268,-0.0010965967594356802,-0.0016286617252132165,-0.7005764287313243,-0.7135746719458278,-0.003416609847456036,0.0017348072970144372,-0.0018499690876111763,-0.012424410734604024,-0.026685873887449738,9.811582910345507
245,1786799103,819363107,1786799103.819363,-0.0012022105551320289,0.0023354266749608006,-0.7070266281824816,-0.7071820469390736,0.0016141253621410178,0.0008051044201003464,0.0006799198745963144,0.007736448508186757,0.009271197357146104,9.799293716359239
246,1786799103,828575810,1786799103.828576,-0.002269936489689594,-0.0016332166851219317,-0.6969052394627533,-0.717157770090344,-0.0008091105248995275,-0.0003790179438515364,-0.000704710329058798,-0.0038452464049053875,-0.002240137753640386,9.853075723979567
247,1786799103,839602653,1786799103.839603,5.6816696687274446e-05,0.0008560097077966657,-0.7039270179644392,-0.710271791217232,-0.0008617239662606777,0.0014082589003653982,0.0013409463893602688,-0.0026540589792247195,0.005560506346099344,9.866681075151883
248,1786799103,848999204,1786799103.848999,-0.00021713803084054688,-0.0006524308204808313,-0.7155930523594841,-0.6985170796766081,-0.0005866861871342371,0.0019020677261777355,0.0010374744473240559,-0.002266667250683119,-0.011029945806652347,9.83690536299135
249,1786799103,859649978,1786799103.859650,-0.0010712760430152855,-0.00032111294661190813,-0.6951377714435902,-0.7188756693382758,-0.0023469432639781672,0.0006246132686801777,-0.0005276459788898019,-0.005936495637033673,-0.04420967539236541,9.802248163796694
250,1786799103,869417148,1786799103.869417,-0.0006932688287316817,0.0016364133960488627,-0.7036800967325603,-0.7105147169425718,0.0002932586848265591,0.0017318193322271443,0.003963596843836719,0.005043854426907791,0.011140501841140602,9.794156217958632
251,1786799103,880405289,1786799103.880405,-0.000975500847512705,-0.0007397423657175912,-0.7108392918937948,-0.7033533978586138,-0.0005396098193472507,-0.0009915768659143611,0.0029031371476241994,0.026624025421320224,-0.03850942896744149,9.861276035605014
252,1786799103,890094835,1786799103.890095,-0.00018315694679721237,-0.0007481916694712801,-0.7122682863990685,-0.7019068989922334,0.0032063370758414205,0.00016174789425765898,5.4072155911774275e-05,0.018176283790047192,0.022879561881863967,9.783597841497105
253,1786799103,900853887,1786799103.900854,-0.00032929975446784895,-0.0016228925469276374,-0.7090936439667926,-0.7051123753469005,0.001518985527952511,0.0019584013906591346,-0.0007778321308285469,-0.002428587148501616,0.031477132164672676,9.806468094244307
254,1786799103,910761710,1786799103.910762,0.0009875347371716128,0.0017343042763654246,-0.7143909090073481,-0.699743986105972,0.0031543784625773165,-0.0012293198346148518,0.0031924505787872767,-0.0017714081207248346,0.028766422543402906,9.790712930668038
255,1786799103,921381946,1786799103.921382,-0.001372414966180315,0.00033715088674654,-0.709309365938072,-0.7048958974195909,-0.000719758975375738,0.0011718253448716673,-0.0013830908342585707,0.02963233789599848,0.0296534080887995,9.821911729753978
256,1786799103,931102031,1786799103.931102,-0.00146255020224998,-0.00024076703743121722,-0.7100891413035667,-0.7041102288568907,-0.001084685018548393,0.0011697508323838459,-0.0014900036325625028,-0.004813567440662854,-0.005841934810150795,9.801666845423359
257,1786799103,941854540,1786799103.941854,0.0008709914663165852,-0.000305500612285543,-0.718229578813753,-0.6958055907796806,0.0006966750497626185,0.0012660443854862536,-0.0023564087318032135,-0.004055674734130853,-0.027363637741554505,9.858056481937789
258,1786799103,951535598,1786799103.951536,0.00038458869933133736,-0.0011203064394230884,-0.7056458150174437,-0.7085637450176109,0.000762119147869852,0.001780084179199985,-0.0011084153096301657,0.025686390372535894,0.000716900618861624,9.798350978342793
259,1786799103,958855002,1786799103.958855,-0.0006721194057878246,0.0006583325117985867,-0.6996611083895542,-0.7144742460445365,-0.0021421150375362814,0.0005393079603392326,-0.001903723481084452,-0.0006082910502331838,-0.00697828394041377,9.810868351335811
260,1786799103,968531901,1786799103.968532,-0.0003974457144691489,0.00035156780794351716,-0.70910409992189,-0.7051036050900228,0.00400500426894837,-0.0005049269135426682,0.00183816738843306,0.009010878645433727,-0.012951347683659983,9.82319803546522
261,1786799103,979215869,1786799103.979216,-0.00046791035277000666,-0.0018580839431780512,-0.6889201702067455,-0.7248346898888539,0.0013426418017076609,0.0015074119713359617,-0.00036513076054784765,-0.01609628464094677,-0.024099257156357235,9.839280896533467
262,1786799103,988910411,1786799103.988910,-0.0010891591949482784,-0.0012854302603721153,-0.7034036127467965,-0.7107886598532988,0.00025214904210491777,-0.003082625555225775,-0.0001842546045684807,-0.020850252724680385,0.02347728424134408,9.790401119169113
263,1786799103,999837581,1786799103.999838,-1.3883738810079808e-05,-0.0007073661835870005,-0.7063169613148806,-0.7078953662789703,0.0024685809587148117,-0.002577967934734676,0.0019580447007344643,0.00875608282995194,-0.006447225318680714,9.82868323885272
264,1786799104,9678059,1786799104.009678,-0.00021011817167141848,-0.0013889359956349974,-0.7112293896857883,-0.7029585919201323,-0.0007736753741897983,0.0005835130615381668,0.0006104646607907467,-0.04363075513272111,-0.03316200515190552,9.816689402730493
265,1786799104,20405333,1786799104.020405,0.0013608687645515415,0.0012186302453893163,-0.705101983403737,-0.7091035580059143,0.0007444643630527924,-0.00012048908528203267,0.00016803230738456315,0.034716615971008315,0.023713156696451864,9.804186394633085
266,1786799104,30251811,1786799104.030252,-0.0003192539580120889,-0.0005449979644415207,-0.705229989948249,-0.7089783228926831,0.001594899361253179,5.516998196544345e-05,-9.989274520942311e-05,0.03258294238657365,0.0001768100628810662,9.828533708500933
267,1786799104,41071133,1786799104.041071,0.0003755514013244216,-0.00037316433775367544,-0.7154821666600296,-0.6986307958435497,0.0009936620785104783,-0.0003466625166237323,-8.265259537327701e-05,0.007171212454978431,-0.04761321561136246,9.85251980233584
268,1786799104,50871659,1786799104.050872,0.0016541864610932879,-9.913871594983059e-05,-0.6950280363969668,-0.7189807246796285,-0.0012709327939531274,-0.0010745179759373703,0.001577374342169735,0.0073804708430090585,-0.0008125353330377606,9.81813128614512
269,1786799104,61762851,1786799104.061763,0.00021549545534533095,4.0189265715940994e-05,-0.7060585693601351,-0.7081534075182094,-0.0006935856433780631,-1.2570169376601062e-06,0.0010408781723055783,-0.01915425751235949,-0.010173940989618912,9.79465577185886
270,1786799104,71438410,1786799104.071438,-0.002040502313799529,-0.0009033645456329874,-0.713483178762985,-0.7006688047180862,-0.0033699604470575767,0.003634008179525212,0.0009261089953116754,-0.0013474181553598077,-0.023442246821664386,9.79900108311023
271,1786799104,78833434,1786799104.078833,0.0008455634877200602,-0.0009910110397063731,-0.7095352379568817,-0.7046687512703959,-0.0026841916275449095,0.0002863714395613449,0.0024430959917901055,-0.030985389187099168,-0.021415038506368556,9.790752963903847
272,1786799104,88759011,1786799104.088759,0.000548467208978472,-0.00033726729333196173,-0.7196833862397984,-0.6943021021175946,0.0004744458948235304,-0.001008465360529922,-0.0001368349728903625,-0.003761322190486423,-0.008550579453492125,9.773761167025311
273,1786799104,99601474,1786799104.099602,-0.00026414221664737303,-0.0009378106550524835,-0.7061127540950993,-0.7080987425806506,0.00020205631527946109,0.0002824759950024114,-0.0015136363757294964,-0.008151050042182343,-0.023755904495413593,9.796164730902815
274,1786799104,109490357,1786799104.109490,-0.0010800853275304534,-0.00015519110590269896,-0.7032883764655247,-0.7109038393903162,0.0005416125799668472,-0.0010519585200740851,-0.0020133852752852346,-0.017272965457410576,-0.002078243060329745,9.810725835591084
275,1786799104,120744007,1786799104.120744,-0.00030104836217722164,-0.002102829335467627,-0.7122042969623557,-0.7019690355471717,0.0003501042264216978,-0.002742076215008822,-0.00028563914573652655,0.010865381480064124,0.0030635828267351977,9.830214209244247
276,1786799104,130187893,1786799104.130188,0.0016185005236243972,2.3115756246430696e-06,-0.7111592364126829,-0.7030291038894774,0.0004779228714150944,0.004630050032575096,-0.0015273530662043321,-0.018427672559202156,-0.01676981734408696,9.781384053038447
277,1786799104,141458296,1786799104.141458,0.000668182439908331,0.0006392408359205964,-0.702342865294231,-0.7118382150978344,-0.0011643952310830792,0.002062868961425124,0.003790551065703532,0.021520538360246123,0.014156473065249593,9.81500653587315
278,1786799104,150795588,1786799104.150796,0.0004615699271839937,-0.0010103038859011037,-0.7086237304336418,-0.7055856963584013,0.0008280095705471395,-0.0005811060273355207,-0.0006478545794556038,0.011084939420255506,-0.01785584476550135,9.80025630651168
279,1786799104,162147589,1786799104.162148,-0.0014716109706977868,-0.00040696795849896265,-0.7032086294537369,-0.7109819211485119,0.0016195510840964493,0.001188974081179121,-0.0003225239095182218,-0.02323666256714412,-0.021996558712875026,9.821628073034926
280,1786799104,171341478,1786799104.171341,4.9025481566169204e-05,-0.00013918110637984522,-0.7029490653134852,-0.7112401772959817,-0.0010434490724113598,-0.0004972284135599269,0.002293313325922177,0.008921634988549225,-0.013725243202191704,9.790373082290051
281,1786799104,178896960,1786799104.178897,-0.0005678336654047074,-0.00022812021069333667,-0.7187363542588396,-0.6952824451924626,-0.0002944889720836023,0.00047080889590637087,0.0004250015006783266,-0.017863967102247774,-0.003602349112406681,9.778587447897623
282,1786799104,188648189,1786799104.188648,0.001251297259939128,-0.0007085735551005396,-0.7008997739189329,-0.7132583256430123,-0.000306979960198039,0.000561413365173992,0.00015488461631310585,0.00901384654065344,0.03133124592502976,9.798390624425297
283,1786799104,199455699,1786799104.199456,0.0007650571368824671,5.073301212942693e-05,-0.7124908344453296,-0.7016809979934877,-0.0034657435229280254,-0.0026192976981946566,-9.189612058088621e-05,-0.015810358420706876,0.01351153417338866,9.836208536482504
284,1786799104,209131439,1786799104.209131,0.001332581877656629,0.0016820601405403155,-0.7043732076298772,-0.7098265839431637,-0.0019560186430045384,-0.0022814963565601465,0.0016284935476499852,0.016793472162651736,-0.017308518887352558,9.844314419660952
285,1786799104,219908101,1786799104.219908,-0.0008066868110081775,-9.419449076775833e-05,-0.7048204009047812,-0.7093853274858528,0.00023901817432904235,0.0003730352403513479,-0.00048922213490481,-0.032434063673226564,-0.031866291240828924,9.816397820400116
286,1786799104,229602308,1786799104.229602,0.0005848703668402154,0.0006658689765012116,-0.7084922567866495,-0.7057180291153972,-0.0026144832787526598,0.0030137029376015676,-0.00034894457816381827,-0.0034787614789483744,-0.003934262720110125,9.791420721442748
287,1786799104,240240598,1786799104.240241,-0.0007349229415012069,0.0009447969102006548,-0.7066702151160309,-0.707542065403133,-0.0014853951944876144,0.0017512796004264337,-0.0038679101429753516,-0.01558976937965967,0.017829354335520683,9.824968434332567
288,1786799104,249952786,1786799104.249953,0.00012212775422943428,5.172236100353604e-05,-0.7033744323036186,-0.7108195202659895,0.0013554808583840802,0.001428519675253646,0.0008706263729163397,0.023569827616517422,0.0061783252896440675,9.792988939400635
289,1786799104,260767409,1786799104.260767,-0.0009078781075588067,-0.0017476332614567143,-0.7101562842499882,-0.7040413151765847,0.0017751000742743243,0.0019842202013903233,0.0005105590407789445,-0.009997207132595323,0.00117368808119492,9.79624632028037
290,1786799104,270341768,1786799104.270342,-5.061612195963387e-05,0.0007503697339076302,-0.7148166981924853,-0.6993114630609627,0.0016386646825917051,-0.00020366744322882803,0.00045222037991438525,-0.02707375636831276,0.015471249058552393,9.785220012058307
291,1786799104,281272081,1786799104.281272,-7.369720779611664e-05,-0.002821527070110251,-0.7073289176570419,-0.7068789399889008,-7.061511881637677e-05,0.0005556156654723451,0.0018715187448068201,0.03271887844910094,0.00751274980145969,9.81728112729887
292,1786799104,291076608,1786799104.291077,-0.0010417244583050985,-0.00016503218508516878,-0.6990155796316866,-0.7151056614282314,0.0013369384204787473,0.0009838636815667227,-0.0008880871214111596,-0.015184634470122402,0.026330103235375688,9.813449786324094
293,1786799104,301860414,1786799104.301860,0.0011559865874314257,-0.001235665584160726,-0.7117286114964235,-0.7024525040192732,3.0210472136004802e-05,-0.0014133271097785368,-0.0007437609132729864,0.003715004437181768,-0.018176236150499403,9.81379301686234
294,1786799104,308237136,1786799104.308237,-0.0016480160801096546,-0.000838562870477277,-0.7111779223711296,-0.7030096326418263,-0.0005784063709235637,0.002219361063860061,0.0007220678635091751,0.030078832155323063,0.0005531603756763191,9.789063164763071
295,1786799104,319380466,1786799104.319381,0.002235905786989302,-0.0007138133875446663,-0.7157059210111684,-0.6983978277638861,-0.00043248416296190196,-0.00044655684362651795,0.0011397855565245007,0.012939084508070837,-0.009482890873592323,9.80075650396605
296,1786799104,328587007,1786799104.328587,-0.0013662633659149675,0.0003987166002405853,-0.707988559464186,-0.7062224677941892,0.0007431299702891343,-0.0014878161046964573,0.0009842259437996925,0.011444924407389815,0.0059589234352753345,9.81430539741677
297,1786799104,339852330,1786799104.339852,8.842289722528002e-05,-0.0001399837659991741,-0.6971294199350884,-0.7169452869270456,-0.0022533021168234892,0.001930891274564361,0.0005136976671157999,-0.011483357404155436,-0.010640326547290743,9.822439728754834
298,1786799104,349217619,1786799104.349218,0.00027908945684908016,9.49558122853487e-05,-0.7031707440943069,-0.7110209685672622,0.00010731438426632812,-0.0006617427289013769,0.0031851522298759127,0.03261895958113441,-0.01829974888703711,9.798038322911713
299,1786799104,360325006,1786799104.360325,-0.00041669492521333336,0.0014416598150962868,-0.7076023703788754,-0.7066092508710269,-0.0011738062192257134,-0.00013057238920450347,0.0008475261736514701,0.027060842837657244,-0.02727414170923513,9.845348691003387
300,1786799104,369658131,1786799104.369658,-0.0018962417181778938,0.001308641724710547,-0.6949946387201789,-0.7190112265287594,-0.0014992947333823828,0.0020843194656347476,0.0007355847804557753,0.02620273845762442,-0.001499912555667646,9.820024635437697
301,1786799104,380419855,1786799104.380420,-0.0014543756053300762,0.0007026772377825973,-0.697116068757974,-0.7169564684942356,0.000416816255607087,-0.0020953471579130967,0.003600698170692675,0.038368850410271216,-0.025717724566618257,9.773481035087096
302,1786799104,390018539,1786799104.390018,0.0001657677710472519,-0.00011324347138031788,-0.7007087038033021,-0.7134474557465732,0.0010816727832480574,0.0016381136439164918,0.0023262826225382187,0.02765197067068621,0.0017768407779557246,9.799176827576995
303,1786799104,400732540,1786799104.400733,0.0013071620064241305,0.00022647605165934562,-0.7131941838793231,-0.700965260278135,-0.00043213430436203935,5.9337858835508784e-05,0.0019000532981234986,-0.04151356766639089,0.029546173934661493,9.781401593615943
304,1786799104,410553214,1786799104.410553,-0.0010465302581424353,-0.000314275908101039,-0.713518281872891,-0.7006357594629539,2.9022355993681695e-05,-0.001940856672546256,-0.0020386296637264906,0.055630522757672475,0.040690357885602546,9.820997309033299
305,1786799104,421295101,1786799104.421295,0.0029625088218983475,0.0001641143773948952,-0.7109437576502265,-0.7032426110995603,0.002369429098649496,0.001333310149850226,-0.0020732394883664954,-0.020233549461690363,-0.01794381034162238,9.825529609418151
306,1786799104,431022416,1786799104.431022,0.0008065924568609815,-0.00190282176133843,-0.6964684132394103,-0.7175844744960214,0.001274101163486349,0.0010703793770638047,-0.0013120748554783133,-0.018012722791915584,-0.014161917310798985,9.82351223523296
307,1786799104,441913989,1786799104.441914,0.0013231917542014591,-0.002277384855043365,-0.7204167877817832,-0.693536383013884,0.00020444837850271502,0.0024947588924439617,-0.001029249004769889,0.006664261679755897,-0.002831202184965322,9.800758043445656
308,1786799104,448236090,1786799104.448236,0.0008019798909930431,-0.0001673329454507051,-0.7053817125977714,-0.7088271780628724,0.0023237075571491384,-0.0006864794294488304,-0.0032131381371782123,0.015285219111373406,-0.00658487349294398,9.809339156998682
309,1786799104,459245516,1786799104.459245,-0.0001466687613362785,0.0005433616700967454,-0.7059670143372379,-0.7082444902109273,-0.0009575720070536714,0.001281942042604756,0.0010915789376768445,0.03519107397688052,-0.01678695782738196,9.795649762529877
310,1786799104,468972129,1786799104.468972,0.0011002217193430692,0.0006817431875551968,-0.7018226042680393,-0.7123505856506482,0.0018017432423739139,-3.8576253824730594e-05,0.0034147352261792168,-0.01073397394896322,0.007227858834336878,9.808629668297309
311,1786799104,479792841,1786799104.479793,0.001143462187147332,0.0018946303405248232,-0.7006172768255866,-0.7135338354160919,-0.000735749307250028,-0.0010145388514411365,-0.0008465189708539889,-0.01643110561748955,-0.03390631544012713,9.764073670710916
312,1786799104,489609313,1786799104.489609,0.0007514059093995818,0.001174772155069669,-0.7128996267032423,-0.7012646986309242,0.0009496898230914246,-0.00047344669554814884,-7.142375274722925e-05,-0.0012380818990045015,-0.00205136078554689,9.80772637458381
313,1786799104,500432841,1786799104.500433,7.668577893437147e-05,-0.0008245192241454564,-0.7117536108582756,-0.7024287235852096,0.0035871184211411574,0.0009868652515735397,0.0033346333014840517,0.01837492630158526,0.007455381106218155,9.774047457336128
314,1786799104,510215772,1786799104.510216,-0.0015476042536713432,-0.0003735379074767842,-0.7078342862093205,-0.7063767328112156,-0.0021940579406993545,0.0025255878444158156,0.0016868096504757918,0.04259511504247193,-0.013262561176534873,9.811528579220278
315,1786799104,520979373,1786799104.520979,-0.0015554348453960059,0.0011048873788131904,-0.7174433407926761,-0.6966142494943424,-0.0012213593172555753,-0.0012753170219525847,0.0018017230784635578,-0.019073203236333228,0.00028916724566908144,9.815108992978267
316,1786799104,530773940,1786799104.530774,-0.00018252392246376109,0.0006121026383467,-0.7120911928800405,-0.7020866933919622,0.0018919131264945692,0.001311741177015611,0.0013653132432012594,0.012887826046427282,0.004631075090695301,9.772487312982566
317,1786799104,541957946,1786799104.541958,-0.0006546987429196437,0.0004844295724975136,-0.7120604092811049,-0.702117732458005,0.0013192899849263744,-0.0007802937387302609,0.0009427065553740442,0.04561367684489464,0.02235288987083792,9.797085926230437
318,1786799104,551319356,1786799104.551319,-0.0009148347807934226,-0.0005153473997493326,-0.7035260224756099,-0.7106687225381663,-0.001134682450768497,-0.0004919299266017071,-5.783252341509539e-05,0.00923954697512699,0.009957475936085123,9.825426398747132
319,1786799104,559267760,1786799104.559268,0.0007286034206891476,-0.00016276602848745394,-0.7143003124359857,-0.69983891453543,-0.0032983459816747613,-0.0032190376401365728,2.9684270249188048e-05,-0.012185990679323657,0.02029870324783144,9.848372219239558
320,1786799104,568579502,1786799104.568579,-0.0012362673413283609,-0.000492823101026727,-0.69865226537815,-0.7154601602118955,-3.2440044867388573e-06,-0.0021924861347776847,-0.0023528121080161144,-0.022015013202171634,0.020329395358326043,9.854376397315773
321,1786799104,579364180,1786799104.579364,0.0008283934799220275,-0.001961248218575918,-0.6938925822927514,-0.7200753790463642,-0.0016964081893450754,-0.002639823989913938,0.0018831463517631044,0.03427099744128473,-0.008480270936500512,9.82543075759107
322,1786799104,589021717,1786799104.589022,0.0012447567411936196,-0.001758841069005123,-0.7083182584921385,-0.7058899359995251,-0.001778605371376995,-0.0011000546256121494,-0.0019529166523991814,0.006314386270836527,-0.012449429075159819,9.80775690971563
323,1786799104,599819238,1786799104.599819,-0.0004996775275421875,0.0014869193027749542,-0.6965276574484293,-0.717528230666055,0.001165579054253383,-0.0007085337230616751,-0.000792704814946329,0.013583482167180319,0.02550407398065554,9.787893521599127
324,1786799104,609579444,1786799104.609580,0.0014669087110316336,-0.00019096457332143358,-0.6998653258317507,-0.7142732932217073,0.0007416431920978428,0.0018167679267076073,0.00233113077149589,-0.008248826219474743,-0.00886836753379043,9.840852006544672
325,1786799104,620424811,1786799104.620425,-0.000626249836021108,0.0005279794623690524,-0.7110909208533488,-0.7030995884857042,0.002495234347756866,0.0013654528058928584,-0.0029623175970301353,0.02150366717420815,0.03584404096524407,9.819136440577727
326,1786799104,630192668,1786799104.630193,0.0004064799974540383,-0.0004996835630122389,-0.7190806803711457,-0.6949262983995633,0.0005400670467841212,-0.0002050458345177495,0.002588737572087077,-0.03552283312387541,-8.594216685722865e-05,9.783089817905704
327,1786799104,641130396,1786799104.641130,0.0009995081145051793,-0.0004084632162515921,-0.7012849076080211,-0.7128802932488311,0.0009854167722420939,-0.0012661092696685237,0.0013062118482952475,-0.005917042795645726,-0.00844576500167468,9.809856131820991
328,1786799104,650763142,1786799104.650763,-0.0018769314265466223,-0.001383403066065132,-0.7056404622315438,-0.7085662293575881,-0.002378039139160339,-0.0013958500656989098,-0.0010706501757087915,0.02221732412949842,-0.020796773154195675,9.80605165482508
329,1786799104,661414702,1786799104.661415,0.00011050951251847741,8.357649470681681e-05,-0.7135643256933694,-0.7005897043922243,0.002808404205237528,0.0013137126925272093,0.0024785741666942273,0.01827534193448486,0.011009431080057334,9.80350947627364
330,1786799104,671080660,1786799104.671081,0.001989067139376704,-0.0003561456848491908,-0.7080553003961133,-0.7061540967473997,-0.0030735659997777522,0.0005039035681853797,-0.0033708804324896788,0.02523758518769114,0.019367203791507248,9.774271428119558
331,1786799104,682056960,1786799104.682057,-0.0014186356262567228,-0.00021447040521754807,-0.706467845398344,-0.7077436858733723,-0.0015395776106852427,-0.00019641824849199273,-0.0032406234463976894,0.004435796313582202,-0.018501127144144276,9.819934123663304
332,1786799104,688321686,1786799104.688322,-0.0004874001118700142,-0.001179863810570867,-0.7129090418462658,-0.7012553517915987,-5.288994652538994e-05,-0.002302889333913267,0.0017956949430194184,-0.014043046007775551,0.0037624321056892165,9.815030713693728
333,1786799104,699348077,1786799104.699348,-0.0015262057719031253,-0.0019637981984257018,-0.7017896642084617,-0.7123798715592352,0.0007581108277659261,-0.0008649534016754338,-0.0008447525032655742,0.011321993312581134,-0.021245941777296887,9.777104093418117
334,1786799104,709111518,1786799104.709111,0.00042526971824651417,-0.003377059208748913,-0.7052242099156238,-0.7089761832146773,0.00042334357244768974,-0.0006320761867529182,-0.00020325442606971278,-0.010226022170199271,0.010371591180819966,9.81153389171861
335,1786799104,720070781,1786799104.720071,-0.0010787180281858313,-0.0010273110696082403,-0.7065541452665017,-0.7076574176860618,0.0002865769237375265,0.002529925408978153,0.0029786009768931433,-0.004934600739328624,-0.015371401743986005,9.82853398175588
336,1786799104,729521494,1786799104.729522,-8.991823902600854e-05,-0.000632263036063398,-0.7102282870018639,-0.7039711446505188,0.0008613945228395773,0.0015610200918938272,-0.0011911409895334771,0.030156408787659038,-0.018752242595058543,9.812460423494253
337,1786799104,740735772,1786799104.740736,0.0010968281444036665,-0.0003182161151905596,-0.6995273391168315,-0.7146049240906833,0.0018570057268229327,0.0006007776521810983,0.002118267608793934,0.0056642559529225325,-0.015343116646796193,9.804015991572864
338,1786799104,750190258,1786799104.750190,-0.0007495394153925207,-0.0013977272742697294,-0.7056610502572613,-0.7085477871667871,-0.0021193329338650207,-0.002140803926141173,-0.00200501659764961,0.01259680355050676,0.03286890025048753,9.807028843488132
339,1786799104,761274196,1786799104.761274,7.689405623304707e-05,0.0015051064701846017,-0.7203280048423348,-0.6936319587372535,0.000963292132546058,0.000786637410222535,-0.0008055997278944885,0.05512954980717506,-0.02828469910079163,9.80912559656161
340,1786799104,770748176,1786799104.770748,-0.0012706500502468957,-0.0006492240998048346,-0.704320766309404,-0.7098804280312652,0.0009548106611297159,0.0028473683429817167,-0.0016162025172822136,-0.018308550355537325,0.0038264289742584692,9.828910642501317
341,1786799104,781950822,1786799104.781951,0.00017498587792733812,-6.666582607196296e-05,-0.7054986738705153,-0.7087112148841406,-8.348353192258275e-05,0.0012188980326202734,0.0016146700898541928,-0.002523857191388773,0.030434696957858092,9.785498468479908
342,1786799104,791234164,1786799104.791234,0.0007943802541542787,-0.001974381143045713,-0.7055418288441638,-0.7086650820594639,-0.0012186024206727098,-0.001931589974546877,0.0008673525611966771,0.04440543695522146,-0.013364617190745092,9.801885342808157
343,1786799104,802394893,1786799104.802395,-0.0016013742231079662,0.0010830334517456567,-0.7117345570630484,-0.7024458576441364,0.0009264235968737336,-0.0010799180576591644,-0.0005927052170003248,-0.03137395014282459,-0.00431125908905785,9.818499786015693
344,1786799104,808382089,1786799104.808382,-0.0001258919827459802,0.001513436256853428,-0.7042423739027304,-0.7099580075340739,0.0025884365754864267,-0.00040273801775755723,0.0015713289557762666,-0.012494744546685487,0.001220918378644491,9.777638221010779
345,1786799104,819387258,1786799104.819387,0.0013765487419612598,-0.0005887849648756384,-0.6927597396286336,-0.7211669027316037,-0.0027664225633270353,-0.00013239612775098225,-0.0014143980670582442,-0.009933613873114245,0.012367439511624745,9.786467598735106
346,1786799104,828713149,1786799104.828713,0.0011394837051334032,-0.0015425897958465864,-0.7089236888027972,-0.7052825855271363,-0.0012417567729583361,0.00171893376049226,-0.002104612191763066,-0.025628708017601715,0.012246995310278069,9.79377633783803
347,1786799104,839903540,1786799104.839904,-0.0001553657785530316,-0.0016574157732393486,-0.7171920550055014,-0.6968735789735577,-0.005888376636188693,-0.0006366388436362417,0.002221705215118785,0.016831605624737053,-0.002538431986001809,9.787349191835945
348,1786799104,849206874,1786799104.849207,0.00010750929721988408,0.0016207065095994616,-0.7042389292086606,-0.7099611907274932,0.0017366662457195918,-6.270986744518147e-05,-0.004119424269983398,0.011480488124383738,-0.008345994292047876,9.832384414876595
349,1786799104,860135348,1786799104.860135,-0.0007979321940975496,-0.0004787463002252978,-0.7111358189905431,-0.7030540385026197,0.0022786292149816556,0.0009925844358877535,0.002135105898935449,0.009372643989001495,-0.05068638106970055,9.781521644477762
350,1786799104,869810121,1786799104.869810,-0.0008687080521212287,-0.0006224275846525445,-0.7157911464498969,-0.6983136061929227,0.0003882535110603372,0.0006626349540173138,0.0020636712695841363,-0.010409946325702328,0.025302575519357964,9.811949828996912
351,1786799104,880778838,1786799104.880779,-0.0007032638727761718,-0.000158747301666137,-0.7096805620370592,-0.7045232289186663,-0.0014110097403818801,-0.002441517239571971,-0.0004217425687516864,0.02933889016250634,-0.0362728129808997,9.798957694526647
352,1786799104,890689730,1786799104.890690,0.0005511728446488522,-4.877919912232733e-06,-0.7102730567076933,-0.7039260480333224,-0.002188189588643233,-0.0007497703976026336,0.001115103508427581,-0.03518454111612153,-0.007222595898439871,9.836865677278292
353,1786799104,901465114,1786799104.901465,0.0003794775984983668,0.0020634369573137067,-0.6949821412676161,-0.71902393669735,-0.00020959018585015165,0.0001430185958152963,0.0017027472043578615,-0.001536763589554668,0.00913257848125181,9.772954926641733
354,1786799104,911408876,1786799104.911409,0.0002760798931935527,-0.0010586018137602007,-0.7153022688015067,-0.698814329696744,7.933668048182653e-05,-0.002403620680568662,0.001264272420772224,0.01448998172799421,-0.02185451763341632,9.835336250004143
355,1786799104,918712661,1786799104.918713,-0.0006800341338686878,0.0007482997425332631,-0.7185477843455554,-0.6954768574245769,-0.00041419078083198093,0.0010894793218939264,0.0004568468446433829,0.008162529416154718,0.04612545256876692,9.820296792682514
356,1786799104,928339720,1786799104.928340,-0.0013056684645687642,0.0006726156946879845,-0.7010579674954327,-0.7131027759230508,0.0009607538299917107,0.0020746776306329985,-5.9927903237694475e-06,-0.012045062028034861,-0.03137897097483154,9.825478588301559
357,1786799104,939084561,1786799104.939085,0.0034699650484029594,-0.0002461155442788892,-0.7004689685283073,-0.7136743815624819,0.0019743746819718866,5.5459626597589345e-05,-0.0002568571022298008,-0.014781328910860666,0.02421676472930096,9.79658788402004
358,1786799104,948746560,1786799104.948746,0.0007729988927185592,-0.0009207302990139081,-0.7138572691807812,-0.7002901926817098,0.0003835617791199921,-0.0003299954773292,-0.0005074210477384441,0.02006201784503067,0.028702303357735087,9.83215045014401
359,1786799104,959409847,1786799104.959410,0.0015646495683446931,0.0006746416958030154,-0.7023426226880056,-0.7118370158161518,-0.0019577522421571833,-0.0008731094700427538,-0.0017436773993366474,-0.00015151984129486466,-0.014089709159944714,9.855517443503878
360,1786799104,969107889,1786799104.969108,-8.497520282265446e-05,-4.849862194792919e-05,-0.7054095566115969,-0.7087999350085531,0.00029086215832718754,0.002884765392753613,-0.0003751781411038234,-0.04016866189518094,6.593614632356501e-05,9.807397793452681
361,1786799104,979889805,1786799104.979890,0.0005447666421765833,-0.0007236179282020827,-0.6985945741831607,-0.7155171559985463,-0.0014324549409101826,-0.0008544985406797892,0.0006938491556996696,-0.016201714684461563,0.05278468258937685,9.837354692812202
362,1786799104,989521087,1786799104.989521,-0.00019485887143547268,-0.0007525804910519877,-0.7090678679905413,-0.7051398118359031,0.0011512015365643794,-0.00021449272189829813,-0.0026673687653159593,-0.04446642345927157,0.019980502258171415,9.805109196276684
363,1786799105,349636,1786799105.000350,-0.0006277756442245305,0.001698882217430454,-0.699528971880202,-0.7146019431803832,0.0009053212735706975,0.0001889051818499128,0.0012076051948156064,-0.0002673258813602781,0.014547480349770046,9.823840829744853
364,1786799105,9985831,1786799105.009986,-0.0003146534770233614,0.0004961309370493436,-0.7053051455811551,-0.7089035946192038,-0.003713005590495568,0.0010652061112366277,-0.002301212901983684,-0.0076234044686067795,-0.01988492297000089,9.820490006470001
365,1786799105,20772905,1786799105.020773,0.0011378104266032477,-0.00014701811107905747,-0.6980604382534322,-0.716037923799106,0.0003625297781148637,-0.0009391982609612199,0.0005366800669555959,-0.0020629282779122777,0.005830812231158813,9.749515626299134
366,1786799105,30528828,1786799105.030529,0.0002957556261876921,-0.0009728327541517999,-0.7105542669286545,-0.7036416700811036,-0.002535849140868171,-0.0006062729537221821,0.00027586473339217583,0.035229091931229604,0.017366113673980003,9.796962987427278
367,1786799105,41567287,1786799105.041567,0.001719180773144495,-0.0009254310034969274,-0.7115710337196192,-0.7026114516332053,0.0018696406180611234,5.2051672113611694e-05,1.7414474030091553e-05,0.00564700853100627,0.003976151453545429,9.81499248160942
368,1786799105,50929927,1786799105.050930,0.0011169669600400772,-0.0014570871519073633,-0.7124038313170138,-0.7017673477775108,0.00039586277030895597,-5.333719711879794e-06,-0.0013029516531772643,0.028148656841724254,-0.031865302317564584,9.830835957391091
369,1786799105,61844442,1786799105.061844,-0.00024819739108148,0.0007018015697969268,-0.6979597514530925,-0.7161366009527438,0.0032636362493744077,0.0005179559331551307,0.00013561275839768023,0.01976211350880089,0.007780541190152201,9.845876204895092
370,1786799105,68143101,1786799105.068143,-0.0010218953544873634,0.0005143279613141166,-0.7046431645275576,-0.7095609218955216,-0.0035610876414653866,0.0016023025124029624,-0.0012162820230698327,0.013483616194813777,-0.007241125632513032,9.815879418846277
371,1786799105,79217361,1786799105.079217,-0.0008778367566628434,-0.000695819373265668,-0.7105185873704238,-0.7036775413775589,-0.001325076139164674,0.0043298190079156225,0.0032521273582224956,-0.004225108603768896,-0.03675445275192766,9.795718943438692
372,1786799105,88803792,1786799105.088804,-0.0014310352917516335,-0.0006043645231635259,-0.7109842137114446,-0.7032062533386887,0.004013662613304854,-0.0026943610521142254,0.0009243062874484407,0.022528459346068,0.022717873788827777,9.795590827055236
373,1786799105,99671731,1786799105.099672,0.0003201203083553145,0.002000280775697272,-0.7083233528596208,-0.7058852061018929,-0.003980889068340618,-0.0008777434350760798,0.0016232114425120446,-0.006435513903588042,0.011212419186566657,9.798257255027837
374,1786799105,109484582,1786799105.109485,0.0003801958804226714,-0.0001403001732323098,-0.692576877630643,-0.721343957026288,0.0003144750424764157,0.0010398996209576964,-0.000756726848469753,-0.016550920054205557,-0.016329669039989295,9.819715142135214
375,1786799105,120305818,1786799105.120306,-0.00012930311369787554,0.0012668955677092118,-0.7181063813932738,-0.6959321829449931,-0.0004552334460041452,0.0007146755610569206,-0.0002653945427347433,-0.011970968583167743,0.013584368463370263,9.80918023399543
376,1786799105,130016691,1786799105.130017,0.00010657607664877423,-0.0009732909904111608,-0.7037787969342882,-0.710418500837298,-0.002208423798667831,0.0015698461166117456,0.0008614903486201142,-0.010054253363297797,0.01539412904069023,9.814568637819
377,1786799105,140823952,1786799105.140824,-0.0007678434272076804,-0.0007432796597102498,-0.7150181490391122,-0.6991050740028287,0.00041653555072291426,-0.0019153000925559234,0.0027194493814949303,0.005186633063176438,-2.7806717093672797e-05,9.804123796325786
378,1786799105,150539073,1786799105.150539,-0.0020409225742557442,0.00102084365302704,-0.7084373786540797,-0.7057699859295649,0.0006569755053507203,0.0011740649633233367,7.005304137629138e-05,-0.00813277565833095,0.006415993887557453,9.826684712431783
379,1786799105,161424126,1786799105.161424,-4.568980656050164e-05,0.0003863895530820977,-0.716855762911781,-0.6972213879362302,-0.0002552525754351924,-0.003026957990888744,0.0022809321138342474,-0.03080874818134462,-0.027796654951892222,9.838257594278144
380,1786799105,171227662,1786799105.171228,-0.0003736359015125743,0.0012514426430914865,-0.7141420138197238,-0.6999996274177821,0.0010641759735819146,-0.001612566337419692,-0.00043895760286468094,-0.003167784511493612,-0.006124099131486155,9.822477358129392
381,1786799105,178748778,1786799105.178749,-0.0009133211515451076,0.00168704792381376,-0.7149520018621506,-0.6991709052492677,0.0008508278863262126,0.002093587303604892,-0.0016378525721507501,0.01756035042460939,0.001321757766038918,9.81361165203869
382,1786799105,188397298,1786799105.188397,-5.138366532511608e-05,-0.0010487963268914406,-0.7226164145399594,-0.6912484465251241,0.0008877169546611933,-0.0015657928597886126,0.0028874699206310104,0.05363778049626098,-0.03937044890863451,9.798458982824528
383,1786799105,199134521,1786799105.199135,-0.0008412621032571992,-0.00033645819541749174,-0.6983364388550962,-0.7157690949189822,0.0005863515159748555,0.00031360592690388123,0.001191598432531951,-0.015128009390978619,-0.005259169077817547,9.778079468759628
384,1786799105,208736774,1786799105.208737,-0.0006396761617255507,0.001131643531181292,-0.7042155995233977,-0.7099849995494468,1.9992494916705397e-05,0.002768489017563618,-0.002470480364692102,-0.0009086239941998399,0.014074190702368128,9.783970206611565
385,1786799105,219455453,1786799105.219455,-0.00097352481099433,0.00029567014058818594,-0.7178051660054078,-0.6962432825417847,-0.0015193400167456891,0.0014480090615084475,0.001226218367624842,0.027021753939095637,-0.027241297209042795,9.799787144310127
386,1786799105,229293093,1786799105.229293,0.0003851637523257838,-0.0007771559136962803,-0.7085728431379911,-0.7056371402108267,0.000250212943089619,-0.002802682057056024,-0.0007356819798324539,-0.023108215141637446,-0.030259556780245254,9.795800762432792
387,1786799105,240188950,1786799105.240189,0.0013084420967744471,-0.00034697008722245066,-0.7083316602725998,-0.705878478667894,0.0015928905232431556,0.0003305880847078983,-0.0026068925228466865,-0.01823090705565817,0.016490031581897463,9.818113824619108
388,1786799105,249956055,1786799105.249956,0.0011345163210637183,-3.1196568453801e-05,-0.7169682837683413,-0.6971048643997333,-0.0032002862513270344,0.002083925933204074,-0.001733737255698464,0.024449930567971446,0.015062745950670803,9.824547941169394
389,1786799105,260998880,1786799105.260999,9.003938870523389e-05,-0.00046795850927720275,-0.6973069727180123,-0.7167724595062113,-0.0007120266962272264,-0.0010665942049345187,-0.00012250399075172067,-0.01775536858914665,0.032910782646329066,9.78313451050342
390,1786799105,270323462,1786799105.270324,0.0014591631812847354,-0.0004606134392105614,-0.7152322506070029,-0.6988851739518528,0.000489155815033251,0.000787703000298352,-0.0013047307538332977,-0.02208048469120828,0.004128694626418413,9.811075228451225
391,1786799105,281567280,1786799105.281567,3.158836979189434e-05,-0.00013779362619945984,-0.7113244587166189,-0.7028637808612709,0.001403969263086983,-0.0036960988419482447,0.0012135594441088878,0.006005348785689891,0.020168192455842136,9.792241487391145
392,1786799105,290973563,1786799105.290974,-0.001731140959491533,0.0014545671865835777,-0.705614322733628,-0.7085924886268846,-0.0010790868533608004,0.0003539980286087844,0.001584761533490662,-0.026513032546131615,0.024651520014013655,9.797750513720601
393,1786799105,302458584,1786799105.302459,-0.0013761072749682555,0.001426184669222687,-0.7104445148723133,-0.7037504270790182,4.8078285915494123e-05,-0.00177632756356596,-0.0029400425717393606,-0.002854446640004651,-0.021530024295682525,9.787859921964733
394,1786799105,311567952,1786799105.311568,-0.0009222863379092876,0.00021167320526616616,-0.6957136583862247,-0.7183185993117682,-0.0014575578355649121,-0.0025691864792350225,0.0011965847038009952,0.006402615515873538,0.0319983641044954,9.793103467790814
395,1786799105,319251619,1786799105.319252,0.0003795621126237614,-0.0005569688925354704,-0.7036660141685513,-0.7105305667051909,-0.0007853425544413707,0.0008826799456496807,0.001683530266640875,0.01029123841458051,0.019748351623285695,9.81538926201111
396,1786799105,328667328,1786799105.328667,-0.0012536984828458884,-0.001366261531080153,-0.7092048942707508,-0.7049999854694723,-0.001783635522891741,0.0004277360262290529,-0.0007584628330974486,-0.007280717877519972,-0.008973733294148075,9.76002853546996
397,1786799105,339859160,1786799105.339859,-0.00025668457475203337,-0.0015210272023660333,-0.7041010512023034,-0.7100981131400719,0.0030241001344553636,-0.0014383583929253505,-0.0018764883732569238,-0.006022218152126532,-0.002245309127714228,9.831958501854563
398,1786799105,349267503,1786799105.349267,-0.0008932082307098982,-7.048950215741483e-05,-0.7026737097226797,-0.7115116688255042,0.0020283621391060202,-0.00032314290045568983,0.0011820262554212385,-0.009329090481351254,0.00044036630330772483,9.824840796483628
399,1786799105,360256958,1786799105.360257,-0.0013021723423345152,-0.001999310656647415,-0.7058458094243455,-0.7083614899344682,-0.0012158705565394753,0.0006846288050351737,0.0012659656708397438,-0.0010698947383030017,0.030077199991945674,9.813599293231865
400,1786799105,369699365,1786799105.369699,0.0007311336604143796,-0.00016308635795756404,-0.7020393679677795,-0.712137742764566,-0.00030298711204911576,-0.0007125601735967856,0.0017936422953807015,-0.04403323665169156,0.02266892805924761,9.806507480313966
401,1786799105,380516454,1786799105.380517,0.002104167468037132,-0.00022411171693627514,-0.6948329071195031,-0.719168098178072,0.0020126291821218464,0.0020575288948039318,0.00039004201807919824,-0.014149783821760393,0.013586444076334471,9.826444376011512
402,1786799105,390322062,1786799105.390322,0.00067937034464455,-8.2699965005535e-06,-0.7045524206622185,-0.7096516222249833,-0.00031356351837469044,-0.002614234027616321,0.0009309762026721098,-0.013767212319573431,-0.006623383889281179,9.798911006183719
403,1786799105,401462071,1786799105.401462,0.0002516006376211673,0.00139050768637988,-0.7222184811585719,-0.6916635516336676,-0.001895602337791022,-0.00195803224070884,-0.0026251683550239085,-0.009031862316582859,0.007634536569927604,9.809658850135152
404,1786799105,410793735,1786799105.410794,0.0002900218282619868,5.0349237076435606e-05,-0.7065538885348677,-0.707659180643162,0.001355248561144386,0.0028678079915316584,0.00230650344723786,-0.001844138256865709,0.0170101893137838,9.788484957370985
405,1786799105,421811922,1786799105.421812,0.0007442501147127986,-0.0007839694380855674,-0.7128198238545169,-0.7013463696375011,-0.0014337825902586943,-0.0016363209135500404,-0.0020707982632917825,-0.023115489375703232,-0.0007120711914605766,9.835025936782925
406,1786799105,431325126,1786799105.431325,0.0014087080148525338,0.0010883958774955532,-0.7039028131687007,-0.7102940662495584,2.7975073328438708e-05,0.0009247551315424731,0.00204920724382222,-0.03641856277182706,-0.003847554542217076,9.79087981514331
407,1786799105,439208675,1786799105.439209,0.0008372718941733512,-0.000500752200013812,-0.6964601407858151,-0.7175948163968384,0.001663308437948768,0.001352114500429791,0.0008232107503020056,-0.04996336756043195,-0.012405046113338657,9.806282075361159
408,1786799105,448665351,1786799105.448665,0.0017064108226195604,0.00014521920986374856,-0.7019831842173485,-0.7121914603177699,0.0006948585948719139,0.0011581482849737025,0.0015504228779947035,-0.010216490346343208,-0.027152660049508674,9.815395725106036
409,1786799105,459733376,1786799105.459733,-0.0015488059447341268,0.0029497869282832166,-0.7135415881100985,-0.7006049543034519,0.000529310075462121,5.940335009260453e-05,-0.001177083120128789,-0.01905112128256934,-0.016289233114651865,9.841575838416302
410,1786799105,469130718,1786799105.469131,0.0014299527715612075,0.0019495279926184884,-0.7124512071951403,-0.7017174872709562,0.0016658076040928361,0.0031819790656162517,-0.0020471159388345825,0.008846466003949487,0.018952315331689343,9.807414563323078
411,1786799105,480311174,1786799105.480311,0.0006226131653333364,-0.0009964760419705855,-0.7053387310533531,-0.708869447687224,-0.0007300358201632014,-0.002144787901117416,0.0005193623733188205,-0.010473977089575816,0.024272064137933026,9.841026834411894
412,1786799105,489647822,1786799105.489648,0.0016462804652932614,-3.0244914634763662e-05,-0.7094978691600915,-0.7047056566419518,-0.0006823330666235502,0.0012374056828462897,0.0020469941794039456,0.0066023367536802964,0.01493161536520252,9.761420459667642
413,1786799105,500859906,1786799105.500860,0.0005197825525905693,0.0014559611928367828,-0.7105459303204184,-0.7036491248542801,0.0006337245803088445,-0.0007607434267278096,-0.0019917996034385455,-0.000296534919504811,-0.011096937416400035,9.787341415063844
414,1786799105,510121086,1786799105.510121,-0.0002575228025434803,0.0002975344843456437,-0.701048806196123,-0.7131131863079155,0.0002840402187906325,-0.0010718628813510744,-0.0011463203643992783,-0.00042553383598828003,-0.012530390328664287,9.802900234476425
415,1786799105,520884673,1786799105.520885,-0.0006003908800789898,0.002033190387430177,-0.7112145559251947,-0.7029718067659384,0.0005956709930521711,0.001040587018517508,0.0020169493243457973,-0.01582082020454034,0.009531069292552936,9.814576938998586
416,1786799105,530472987,1786799105.530473,-0.0003050771169120237,6.465690105731201e-05,-0.7071544257949516,-0.7070590645950665,0.0009326467063754248,0.003644674174122883,-0.0013346866066081195,0.008297526251584399,-0.019114249028880828,9.838349109466808
417,1786799105,541249028,1786799105.541249,0.0014481102402141995,-1.190290643903033e-05,-0.7151164990054466,-0.6990037880335458,-0.0007247144158242996,-0.0004402349456113359,-0.0007484659609417159,-0.004731434654985403,0.014856934524469944,9.805547172226483
418,1786799105,550931170,1786799105.550931,0.00018477501014865528,0.00040416955881000897,-0.7057641961266014,-0.708446682518124,0.0013459301458908833,-0.0028731486676606905,0.00061500249675937,-0.014724467864457651,0.014802667535610999,9.778420187758352
419,1786799105,561754783,1786799105.561755,-0.0007707683582942801,-0.00036217717282090964,-0.7113041182966131,-0.7028838638339276,-0.0016865304030155392,-0.0014271135076217216,0.0006178851449633783,-0.015077268418039311,-0.03837099218966033,9.814701938356842
420,1786799105,568129694,1786799105.568130,-0.0015751232701934762,-0.0015227223203548715,-0.7001345628726623,-0.7140075589057338,-0.0025818759560634705,0.003523613973482778,0.0009826696070155076,0.033451779309607514,0.0013682300223322203,9.832552125712294
421,1786799105,579368922,1786799105.579369,-0.0011601310016326437,-0.0023055242355740587,-0.7019825144229622,-0.7121895029403859,-0.00013184796580491154,-0.0014895617148826153,-0.0007930428933242687,-0.026335385078213574,0.003333928861792518,9.820707130475919
422,1786799105,588518883,1786799105.588519,0.0003751279734149187,-0.0006493737557423783,-0.7089594862138141,-0.7052488103500593,-0.0029726491024907042,0.000310010347299398,0.0005807084665252855,0.019361787145394528,0.01730988194037098,9.824183500426264
423,1786799105,599652857,1786799105.599653,-0.000560801813800978,-3.863343474316637e-05,-0.7142546919072189,-0.6998856471576677,-0.002024698563112725,-0.0017882524956494754,0.0013996742722002763,0.0037013847912621086,0.0159216215966884,9.814592733125714
424,1786799105,609007302,1786799105.609007,-0.0005343324818375039,0.0004848975342961167,-0.7127294924240981,-0.7014386288137171,-0.00027559400390041953,-0.001175362189742714,0.0012060515142973134,0.01104561404085457,-0.022338993679438136,9.79240379189991
425,1786799105,619905442,1786799105.619905,-0.0009960456792896303,-0.0011262065961640177,-0.7015349635524186,-0.7126334502850777,0.001154827614101565,-0.002994842645344827,-0.002199914289070056,0.0024145741898670995,0.004989671835944795,9.82141639236997
426,1786799105,629365483,1786799105.629365,3.600613335543215e-05,-0.001234380304627152,-0.7121948457896555,-0.7019807523283462,0.0005317506206104398,-0.0029156834034475576,0.000940668644861331,-0.010917661419042473,-0.012801978430407798,9.809161131857007
427,1786799105,640331663,1786799105.640332,-0.0006373722272527429,0.0006028058080160554,-0.698825258037794,-0.7152918908461163,-0.00015513127804277297,0.0005900226357472488,0.00215435131900539,0.01286401571307754,0.03709395417600802,9.82182387417283
428,1786799105,649743877,1786799105.649744,0.0004956419867160862,0.0005654221133796224,-0.7159305928186455,-0.6981710541860051,-0.002268254140835941,-0.001275857313964656,0.0010720155970034713,-0.015470048874409484,-0.002217025103306757,9.766623593855421
429,1786799105,660467203,1786799105.660467,-0.0005259906897580899,0.0018396601938573587,-0.7010716021449523,-0.7130883168655024,-0.0012276429975353058,-0.0023581875485168668,-0.00041377924387360325,0.017749121677241554,-0.02524765709462722,9.817879429035212
430,1786799105,670158840,1786799105.670159,0.00046027508891358006,-0.0003212216501056204,-0.7008226311634177,-0.7133353521399864,-0.0014369200143905573,0.0003647990738549658,0.0001487464262971654,-0.03502910061985893,0.018131740144501505,9.796211908985846
431,1786799105,681474425,1786799105.681474,0.0005082775897306849,-0.0004918946675070273,-0.7159938685710345,-0.6981062095857709,-0.0018849957260593708,-0.0019757360224088387,0.0014903815601216785,-0.005451743214295901,-0.007345107825721825,9.772148741973401
432,1786799105,690928075,1786799105.690928,0.001144536985950999,-0.0021133965431260732,-0.7082886909317452,-0.705918801200488,0.001011009607146399,-0.001210551106455554,0.002339063431621174,-0.010259359174307956,0.0004143805188324617,9.836435286145363
433,1786799105,702151712,1786799105.702152,-1.0240651994432378e-05,9.507594292774776e-05,-0.7111433093835497,-0.7030470712368462,-0.0006371990289232782,-0.00040155748158917477,-0.0009863913692141238,-0.016954671206051024,0.0030432812427129076,9.802610186575418
434,1786799105,708319465,1786799105.708319,-1.272434627635924e-05,-0.00062126883856503,-0.6928912264271785,-0.7210418588427179,0.0009814997450746919,-0.002212554990202898,-0.001696642105028876,-0.0008782526996275437,-0.01623238394195179,9.774599384003151
435,1786799105,719372212,1786799105.719372,-0.0014966788923901106,-0.00019722303490777172,-0.6947079542476376,-0.7192903303676687,-9.173309080174294e-05,0.0013022539771138744,0.003982135569089713,0.029131760173710896,-0.004892127317703084,9.82354185673843
436,1786799105,728586573,1786799105.728587,-0.0016122759096764592,0.001175494407488897,-0.7116466051592271,-0.702534787853695,0.0011779797016263163,0.0004216801595337336,0.0023485086216518195,-0.05630744627850669,-0.0054670161235130495,9.772811476855859
437,1786799105,739429569,1786799105.739429,0.0011448469335437657,-0.00041204498330858676,-0.7110871713850963,-0.7031028048841602,-0.00110928637779062,-0.0018037106021374545,-0.001337609340173527,-0.007896600342377382,-0.009356837625189055,9.809980946696978
438,1786799105,749096126,1786799105.749096,-0.001343835931020605,0.0001045989364290102,-0.7118030959560073,-0.7023777728199379,0.0002575094640500191,0.002246496054738969,-0.0003460110966910896,0.002385706928672868,-0.02548056274089439,9.826289651592367
439,1786799105,759953374,1786799105.759953,0.0007857832533608433,-0.0008428573477751941,-0.7123054819671342,-0.7018686290864828,-0.0016317085776658235,0.0025282899710301603,0.0016370222731268982,-0.017606265598185497,0.013462547167318036,9.813753389765793
440,1786799105,769491162,1786799105.769491,-0.00044074815236994704,5.7840917924556056e-05,-0.7055848070443096,-0.7086253470373036,-0.00398709274592718,0.0006764950466166042,0.0004944227047777122,-0.025847306963834735,-0.01028087619619735,9.799588871012759
441,1786799105,780586950,1786799105.780587,0.001808667462688858,0.0014604963397383416,-0.7121291324106875,-0.7020446527425821,-0.0005881355037756155,0.0019011188784354162,0.00030093734704200595,-0.01338994187725469,0.000638385846193736,9.820602593954774
442,1786799105,789919954,1786799105.789920,0.0010106675846811742,0.0014337161943136672,-0.7077673971900141,-0.7064433696226332,-0.0011070814003851437,-0.0009491369933868559,-0.0015703215265647752,-0.004095697304032643,-0.02949748048428145,9.79650185445467
443,1786799105,801183101,1786799105.801183,-0.0016226010263257424,0.0003404532444136256,-0.7168724965063263,-0.6972023199977787,-0.0010040671043381332,0.0024834794942294592,0.0019109289502664756,-0.01054179748032158,0.004346227559273348,9.82233257850049
444,1786799105,810621807,1786799105.810622,-8.704557304338801e-06,0.0008569905421957253,-0.7031343692867018,-0.7110564845490359,0.003450140948683129,-0.000549876963845936,0.0003380279058355074,-0.013356709612537038,-0.012011223038045433,9.795799692196843
445,1786799105,821716182,1786799105.821716,0.0010722166533708986,-0.00018452435548211064,-0.7084409424720683,-0.7057692592706897,0.0022010284332709238,-0.0012755506150310622,-1.2939075174654282e-05,0.002693533034977203,0.018129678969202607,9.796363889270607
446,1786799105,831174371,1786799105.831174,0.0023542617373664833,0.0023142292552768774,-0.7103881257950811,-0.7038023959350935,0.001960463820166804,-0.0021838089304882756,0.001790849494014604,-0.0271600499020117,0.028433546348854654,9.77527186685341
447,1786799105,842256072,1786799105.842256,-0.0006024941877403566,0.0010476460159025793,-0.7058394723479812,-0.7083707918273471,-0.00013182105006777229,0.003697816066989567,-0.001322735869218763,0.04656703828880698,-0.011245505280825692,9.7645218853683
448,1786799105,848222186,1786799105.848222,-0.0015608016925455096,-0.0005815760704957422,-0.6944102824091096,-0.7195773657862312,-0.00410356608031552,-2.7356839280405194e-05,0.0009414753330348152,0.004507337174897454,-0.026628990263199582,9.793961049452156
449,1786799105,859486942,1786799105.859487,0.0006434822866765266,-0.0017627031892968638,-0.7027754837613274,-0.7114092340081379,-0.003021280919402217,0.0015802728577972115,0.0018914003618713002,-0.019301418065472087,0.011876490841815026,9.786102940989354
450,1786799105,868877166,1786799105.868877,0.0018996014965245727,0.0007491011867811224,-0.6984973606777921,-0.7156097172954857,0.0018966477245053498,0.0002313197731595502,-0.0009453439039279885,0.020796190776073857,-0.011984555907870335,9.79987702275128
451,1786799105,880188561,1786799105.880188,0.0007266583690868064,-0.0011218007271971391,-0.700589017848222,-0.7135637614125362,0.0006873107745407372,0.0007304887076514846,0.001355917377671454,0.0074682423803355295,-0.0002265718804110006,9.799821793988455
452,1786799105,889893628,1786799105.889894,-0.0012171436928590023,-0.0013357515330266211,-0.7021197252836848,-0.7120566169179499,-0.005216243186547251,0.001934964206624848,-0.0010089699957709806,-0.02430425697249557,0.006271863102793219,9.797936093580262
453,1786799105,900554016,1786799105.900554,0.0017845286256613726,-0.0003145373488108598,-0.7081344326052172,-0.7060753089315102,-0.0009540540810003838,-0.00281748579226049,-0.002035798077334808,0.009408006640416907,0.04184040905896926,9.822044098045506
454,1786799105,910339803,1786799105.910340,-0.00026220903359358425,0.00015294745778687472,-0.6893599512890504,-0.7244189156919193,-0.0006726486152981992,0.0004302340073212403,0.00155676563853134,0.01895866234120446,-0.006165074850022804,9.81488974431871
455,1786799105,921438937,1786799105.921439,0.0017264572323547236,0.0010890730631421442,-0.7016781703371363,-0.712491107690206,-0.0007471076847194147,-0.0010052703958655785,0.00047928635944085413,0.001233407509571044,0.010092242626828207,9.805999295468462
456,1786799105,930995187,1786799105.930995,-0.00035026538560211826,0.0007757224730570806,-0.7133356800941902,-0.7008220052719262,-6.533147318955766e-05,-0.0012048374999004982,-0.0005664863530741297,0.006077641852638594,4.0250843929023584e-05,9.808022796138992
457,1786799105,942126390,1786799105.942126,0.0007144099203204083,-0.0007781424148587814,-0.7089466104563497,-0.705261361223838,-0.0043892097003635335,9.904512657088128e-05,0.003757532959186006,-0.011251087906373936,0.009597017793692203,9.804300537696424
458,1786799105,948370729,1786799105.948371,-0.0003382501467657148,0.0008409930612822247,-0.7191429499584848,-0.694861565955779,-0.0011433737753919048,0.0014547801746869458,-4.718850593001461e-06,-0.029478335538359414,0.01757864133942577,9.802321878402067
459,1786799105,959163680,1786799105.959164,-0.0037732172628208585,0.0006937441342608356,-0.7075085979265355,-0.706694322469476,-0.0006696912075237028,-0.0018209853413162166,0.0018408796407419071,-0.012603547497967675,-0.02782568192349581,9.819110749436431
460,1786799105,968536218,1786799105.968536,-0.00019552847954260716,-5.991803539523537e-06,-0.7214931428516256,-0.6924215526330733,0.0012998839886966267,0.0002504027083435124,0.0021123397200417627,-0.015659890340429472,-0.0027793476499373966,9.811726704105839
461,1786799105,979776243,1786799105.979776,-0.0011026869823131998,-0.0006302898604903382,-0.6952081442299682,-0.7188073615458002,0.0010454389359677565,0.0002687776822172755,-0.0002938372279386316,0.0073911564073928186,-0.003509515749274358,9.815436823091913
462,1786799105,989031787,1786799105.989032,0.0013388655450198295,-0.0006181885370536359,-0.6978703132334408,-0.7162226268343136,-0.0032785574314346537,-0.0012672561365117537,0.0012915402288265735,-0.014850251406908235,0.0032303029414422276,9.807892638935215
463,1786799106,119957,1786799106.000120,-0.0005145444913852123,0.0002235880136453987,-0.7060955788727891,-0.7081163172450325,-0.0022431889898873766,0.000266765723110456,-0.0028641918657687435,0.0048153191559984,0.016922583637729433,9.840257869626464
464,1786799106,9492532,1786799106.009493,-0.00017844409237615134,0.0004379532422961684,-0.6986578958437967,-0.7154557435158252,-0.001198556207325034,0.005190179405670326,0.00031792422043151844,-0.0071589056458694145,0.0020585277767410435,9.786918124600083
465,1786799106,20285537,1786799106.020286,-0.0009462327954946705,0.0017372195846546176,-0.7020498743285986,-0.7121250316249321,0.00036460977917248945,0.000700858213164239,0.00041249845105764064,0.0004153504434095411,-0.03546759871393125,9.842905199466282
466,1786799106,29857156,1786799106.029857,-8.615899536981565e-05,3.239730390245497e-05,-0.7055254763770097,-0.7086845516236656,0.0008299063446564503,-0.0022711492426626635,-0.0005323231510525679,0.02418303137084824,-0.025564092786356612,9.789264320330542
467,1786799106,40720023,1786799106.040720,0.0002301342488389038,-0.0013240122561834146,-0.7112223401274944,-0.7029658433617836,-0.000849619873241048,-9.806487524762426e-06,0.0010446908885686852,-0.021709878101888423,0.004260811063653153,9.813991203917444
